instr_resp.keys,instr_resp.rt,prac_resp.keys,prac_resp.corr,prac_1.thisRepN,prac_1.thisTrialN,prac_1.thisN,prac_1.thisIndex,prac_1.ran,prac_1.order,imageFile,posX,posY,corrAns,*Participant ID ,date,expName,psychopyVersion,frameRate,prac_resp.rt,instr_resp2.keys,instr_resp2.rt,prac_resp2.keys,prac_resp2.corr,prac_2.thisRepN,prac_2.thisTrialN,prac_2.thisN,prac_2.thisIndex,prac_2.ran,prac_2.order,prac_resp2.rt,pover_resp.keys,pover_resp.rt,earlyresp.keys,earlyresp.rt,resp.keys,resp.corr,Groups.thisRepN,Groups.thisTrialN,Groups.thisN,Groups.thisIndex,Groups.ran,Groups.order,countgroups,masterBlock.thisRepN,masterBlock.thisTrialN,masterBlock.thisN,masterBlock.thisIndex,masterBlock.ran,masterBlock.order,masterFile,Block1.thisRepN,Block1.thisTrialN,Block1.thisN,Block1.thisIndex,Block1.ran,Block1.order,condFile,instr,StopSide.thisRepN,StopSide.thisTrialN,StopSide.thisN,StopSide.thisIndex,StopSide.ran,StopSide.order,resp.rt
left,17.881,,0,1,0,8,6,1,7,circle.jpg,0,0,c,027,2019-06-09_19h32.04.761,Primed GoNogo,3.0.4,60,,,,,,,,,,,,,,,,,,,,,,,,,,,,,,,,,,,,,,,,,,,,,,,
,,m,1,1,0,8,0,1,7,square.jpg,0,0,m,027,2019-06-09_19h32.04.761,Primed GoNogo,3.0.4,60,0.246,,,,,,,,,,,,,,,,,,,,,,,,,,,,,,,,,,,,,,,,,,,,,,
,,c,1,1,0,8,5,1,7,circle.jpg,0,0,c,027,2019-06-09_19h32.04.761,Primed GoNogo,3.0.4,60,0.064,,,,,,,,,,,,,,,,,,,,,,,,,,,,,,,,,,,,,,,,,,,,,,
,,,0,1,0,8,4,1,7,circle.jpg,0,0,c,027,2019-06-09_19h32.04.761,Primed GoNogo,3.0.4,60,,,,,,,,,,,,,,,,,,,,,,,,,,,,,,,,,,,,,,,,,,,,,,,
,,,1,1,0,8,3,1,7,square.jpg,0.1,0,none,027,2019-06-09_19h32.04.761,Primed GoNogo,3.0.4,60,,,,,,,,,,,,,,,,,,,,,,,,,,,,,,,,,,,,,,,,,,,,,,,
,,,0,1,0,8,7,1,7,circle.jpg,-0.1,0,c,027,2019-06-09_19h32.04.761,Primed GoNogo,3.0.4,60,,,,,,,,,,,,,,,,,,,,,,,,,,,,,,,,,,,,,,,,,,,,,,,
,,m,1,1,0,8,2,1,7,square.jpg,0,0,m,027,2019-06-09_19h32.04.761,Primed GoNogo,3.0.4,60,0.481,,,,,,,,,,,,,,,,,,,,,,,,,,,,,,,,,,,,,,,,,,,,,,
,,,0,1,0,8,1,1,7,square.jpg,0,0,m,027,2019-06-09_19h32.04.761,Primed GoNogo,3.0.4,60,,,,,,,,,,,,,,,,,,,,,,,,,,,,,,,,,,,,,,,,,,,,,,,
,,,,,,,,,,circle.jpg,-0.1,0,none,027,2019-06-09_19h32.04.761,Primed GoNogo,3.0.4,60,,space,22.106,,1,1,0,8,7,1,7,,,,,,,,,,,,,,,,,,,,,,,,,,,,,,,,,,,,
,,,,,,,,,,square.jpg,0,0,m,027,2019-06-09_19h32.04.761,Primed GoNogo,3.0.4,60,,,,m,1,1,0,8,0,1,7,0.379,,,,,,,,,,,,,,,,,,,,,,,,,,,,,,,,,,,
,,,,,,,,,,square.jpg,0.1,0,m,027,2019-06-09_19h32.04.761,Primed GoNogo,3.0.4,60,,,,m,1,1,0,8,3,1,7,0.514,,,,,,,,,,,,,,,,,,,,,,,,,,,,,,,,,,,
,,,,,,,,,,circle.jpg,0,0,c,027,2019-06-09_19h32.04.761,Primed GoNogo,3.0.4,60,,,,c,1,1,0,8,4,1,7,0.493,,,,,,,,,,,,,,,,,,,,,,,,,,,,,,,,,,,
,,,,,,,,,,circle.jpg,0,0,c,027,2019-06-09_19h32.04.761,Primed GoNogo,3.0.4,60,,,,,0,1,0,8,6,1,7,,,,,,,,,,,,,,,,,,,,,,,,,,,,,,,,,,,,
,,,,,,,,,,square.jpg,0,0,m,027,2019-06-09_19h32.04.761,Primed GoNogo,3.0.4,60,,,,,0,1,0,8,1,1,7,,,,,,,,,,,,,,,,,,,,,,,,,,,,,,,,,,,,
,,,,,,,,,,circle.jpg,0,0,c,027,2019-06-09_19h32.04.761,Primed GoNogo,3.0.4,60,,,,,0,1,0,8,5,1,7,,,,,,,,,,,,,,,,,,,,,,,,,,,,,,,,,,,,
,,,,,,,,,,square.jpg,0,0,m,027,2019-06-09_19h32.04.761,Primed GoNogo,3.0.4,60,,,,m,1,1,0,8,2,1,7,0.247,,,,,,,,,,,,,,,,,,,,,,,,,,,,,,,,,,,
,,,,,,,,,,circle.jpg,-0.1,0,c,027,2019-06-09_19h32.04.761,Primed GoNogo,3.0.4,60,,,,,,,,,,,,,space,2.418,c,0.863,,0,1,0,2,0,1,1,conditionsMaster1.csv,1,0,3,0,1,2,conditionsFile1.csv,1,0,1,0,1,0,conditions1.csv,"If you see a circle: 
always respond with the letter  C. 

If you see a square:
respond with the letter  M  only if the triangle is in the middle. 

DO NOT press anything if the triangle is positioned on the right.",1,0,80,31,1,79,
,,,,,,,,,,circle.jpg,0,0,c,027,2019-06-09_19h32.04.761,Primed GoNogo,3.0.4,60,,,,,,,,,,,,,,,comma,0.314,c,1,1,0,2,0,1,1,conditionsMaster1.csv,1,0,3,0,1,2,conditionsFile1.csv,1,0,1,0,1,0,conditions1.csv,"If you see a circle: 
always respond with the letter  C. 

If you see a square:
respond with the letter  M  only if the triangle is in the middle. 

DO NOT press anything if the triangle is positioned on the right.",1,0,80,12,1,79,0.46
,,,,,,,,,,square.jpg,0.1,0,none,027,2019-06-09_19h32.04.761,Primed GoNogo,3.0.4,60,,,,,,,,,,,,,,,comma,0.628,,1,1,0,2,0,1,1,conditionsMaster1.csv,1,0,3,0,1,2,conditionsFile1.csv,1,0,1,0,1,0,conditions1.csv,"If you see a circle: 
always respond with the letter  C. 

If you see a square:
respond with the letter  M  only if the triangle is in the middle. 

DO NOT press anything if the triangle is positioned on the right.",1,0,80,3,1,79,
,,,,,,,,,,square.jpg,0.1,0,none,027,2019-06-09_19h32.04.761,Primed GoNogo,3.0.4,60,,,,,,,,,,,,,,,,,,1,1,0,2,0,1,1,conditionsMaster1.csv,1,0,3,0,1,2,conditionsFile1.csv,1,0,1,0,1,0,conditions1.csv,"If you see a circle: 
always respond with the letter  C. 

If you see a square:
respond with the letter  M  only if the triangle is in the middle. 

DO NOT press anything if the triangle is positioned on the right.",1,0,80,19,1,79,
,,,,,,,,,,circle.jpg,-0.1,0,c,027,2019-06-09_19h32.04.761,Primed GoNogo,3.0.4,60,,,,,,,,,,,,,,,c,0.798,,0,1,0,2,0,1,1,conditionsMaster1.csv,1,0,3,0,1,2,conditionsFile1.csv,1,0,1,0,1,0,conditions1.csv,"If you see a circle: 
always respond with the letter  C. 

If you see a square:
respond with the letter  M  only if the triangle is in the middle. 

DO NOT press anything if the triangle is positioned on the right.",1,0,80,47,1,79,
,,,,,,,,,,circle.jpg,-0.1,0,c,027,2019-06-09_19h32.04.761,Primed GoNogo,3.0.4,60,,,,,,,,,,,,,,,,,,0,1,0,2,0,1,1,conditionsMaster1.csv,1,0,3,0,1,2,conditionsFile1.csv,1,0,1,0,1,0,conditions1.csv,"If you see a circle: 
always respond with the letter  C. 

If you see a square:
respond with the letter  M  only if the triangle is in the middle. 

DO NOT press anything if the triangle is positioned on the right.",1,0,80,79,1,79,
,,,,,,,,,,square.jpg,0,0,m,027,2019-06-09_19h32.04.761,Primed GoNogo,3.0.4,60,,,,,,,,,,,,,,,comma,0.881,,0,1,0,2,0,1,1,conditionsMaster1.csv,1,0,3,0,1,2,conditionsFile1.csv,1,0,1,0,1,0,conditions1.csv,"If you see a circle: 
always respond with the letter  C. 

If you see a square:
respond with the letter  M  only if the triangle is in the middle. 

DO NOT press anything if the triangle is positioned on the right.",1,0,80,73,1,79,
,,,,,,,,,,square.jpg,0,0,m,027,2019-06-09_19h32.04.761,Primed GoNogo,3.0.4,60,,,,,,,,,,,,,,,comma,0.411,,0,1,0,2,0,1,1,conditionsMaster1.csv,1,0,3,0,1,2,conditionsFile1.csv,1,0,1,0,1,0,conditions1.csv,"If you see a circle: 
always respond with the letter  C. 

If you see a square:
respond with the letter  M  only if the triangle is in the middle. 

DO NOT press anything if the triangle is positioned on the right.",1,0,80,16,1,79,
,,,,,,,,,,square.jpg,0,0,m,027,2019-06-09_19h32.04.761,Primed GoNogo,3.0.4,60,,,,,,,,,,,,,,,,,,0,1,0,2,0,1,1,conditionsMaster1.csv,1,0,3,0,1,2,conditionsFile1.csv,1,0,1,0,1,0,conditions1.csv,"If you see a circle: 
always respond with the letter  C. 

If you see a square:
respond with the letter  M  only if the triangle is in the middle. 

DO NOT press anything if the triangle is positioned on the right.",1,0,80,48,1,79,
,,,,,,,,,,circle.jpg,-0.1,0,c,027,2019-06-09_19h32.04.761,Primed GoNogo,3.0.4,60,,,,,,,,,,,,,,,,,c,1,1,0,2,0,1,1,conditionsMaster1.csv,1,0,3,0,1,2,conditionsFile1.csv,1,0,1,0,1,0,conditions1.csv,"If you see a circle: 
always respond with the letter  C. 

If you see a square:
respond with the letter  M  only if the triangle is in the middle. 

DO NOT press anything if the triangle is positioned on the right.",1,0,80,55,1,79,0.045
,,,,,,,,,,circle.jpg,0,0,c,027,2019-06-09_19h32.04.761,Primed GoNogo,3.0.4,60,,,,,,,,,,,,,,,,,m,0,1,0,2,0,1,1,conditionsMaster1.csv,1,0,3,0,1,2,conditionsFile1.csv,1,0,1,0,1,0,conditions1.csv,"If you see a circle: 
always respond with the letter  C. 

If you see a square:
respond with the letter  M  only if the triangle is in the middle. 

DO NOT press anything if the triangle is positioned on the right.",1,0,80,52,1,79,0.465
,,,,,,,,,,square.jpg,0.1,0,none,027,2019-06-09_19h32.04.761,Primed GoNogo,3.0.4,60,,,,,,,,,,,,,,,m,0.264,m,0,1,0,2,0,1,1,conditionsMaster1.csv,1,0,3,0,1,2,conditionsFile1.csv,1,0,1,0,1,0,conditions1.csv,"If you see a circle: 
always respond with the letter  C. 

If you see a square:
respond with the letter  M  only if the triangle is in the middle. 

DO NOT press anything if the triangle is positioned on the right.",1,0,80,43,1,79,0.549
,,,,,,,,,,circle.jpg,0,0,c,027,2019-06-09_19h32.04.761,Primed GoNogo,3.0.4,60,,,,,,,,,,,,,,,c,0.649,,0,1,0,2,0,1,1,conditionsMaster1.csv,1,0,3,0,1,2,conditionsFile1.csv,1,0,1,0,1,0,conditions1.csv,"If you see a circle: 
always respond with the letter  C. 

If you see a square:
respond with the letter  M  only if the triangle is in the middle. 

DO NOT press anything if the triangle is positioned on the right.",1,0,80,21,1,79,
,,,,,,,,,,circle.jpg,0,0,c,027,2019-06-09_19h32.04.761,Primed GoNogo,3.0.4,60,,,,,,,,,,,,,,,c,0.729,,0,1,0,2,0,1,1,conditionsMaster1.csv,1,0,3,0,1,2,conditionsFile1.csv,1,0,1,0,1,0,conditions1.csv,"If you see a circle: 
always respond with the letter  C. 

If you see a square:
respond with the letter  M  only if the triangle is in the middle. 

DO NOT press anything if the triangle is positioned on the right.",1,0,80,76,1,79,
,,,,,,,,,,square.jpg,0.1,0,none,027,2019-06-09_19h32.04.761,Primed GoNogo,3.0.4,60,,,,,,,,,,,,,,,m,0.28,m,0,1,0,2,0,1,1,conditionsMaster1.csv,1,0,3,0,1,2,conditionsFile1.csv,1,0,1,0,1,0,conditions1.csv,"If you see a circle: 
always respond with the letter  C. 

If you see a square:
respond with the letter  M  only if the triangle is in the middle. 

DO NOT press anything if the triangle is positioned on the right.",1,0,80,75,1,79,0.489
,,,,,,,,,,circle.jpg,0,0,c,027,2019-06-09_19h32.04.761,Primed GoNogo,3.0.4,60,,,,,,,,,,,,,,,c,0.593,c,1,1,0,2,0,1,1,conditionsMaster1.csv,1,0,3,0,1,2,conditionsFile1.csv,1,0,1,0,1,0,conditions1.csv,"If you see a circle: 
always respond with the letter  C. 

If you see a square:
respond with the letter  M  only if the triangle is in the middle. 

DO NOT press anything if the triangle is positioned on the right.",1,0,80,46,1,79,0.433
,,,,,,,,,,circle.jpg,0,0,c,027,2019-06-09_19h32.04.761,Primed GoNogo,3.0.4,60,,,,,,,,,,,,,,,m,0.511,c,1,1,0,2,0,1,1,conditionsMaster1.csv,1,0,3,0,1,2,conditionsFile1.csv,1,0,1,0,1,0,conditions1.csv,"If you see a circle: 
always respond with the letter  C. 

If you see a square:
respond with the letter  M  only if the triangle is in the middle. 

DO NOT press anything if the triangle is positioned on the right.",1,0,80,13,1,79,0.479
,,,,,,,,,,square.jpg,0,0,m,027,2019-06-09_19h32.04.761,Primed GoNogo,3.0.4,60,,,,,,,,,,,,,,,,,m,1,1,0,2,0,1,1,conditionsMaster1.csv,1,0,3,0,1,2,conditionsFile1.csv,1,0,1,0,1,0,conditions1.csv,"If you see a circle: 
always respond with the letter  C. 

If you see a square:
respond with the letter  M  only if the triangle is in the middle. 

DO NOT press anything if the triangle is positioned on the right.",1,0,80,10,1,79,0.343
,,,,,,,,,,circle.jpg,0,0,c,027,2019-06-09_19h32.04.761,Primed GoNogo,3.0.4,60,,,,,,,,,,,,,,,c,0.793,c,1,1,0,2,0,1,1,conditionsMaster1.csv,1,0,3,0,1,2,conditionsFile1.csv,1,0,1,0,1,0,conditions1.csv,"If you see a circle: 
always respond with the letter  C. 

If you see a square:
respond with the letter  M  only if the triangle is in the middle. 

DO NOT press anything if the triangle is positioned on the right.",1,0,80,70,1,79,0.509
,,,,,,,,,,circle.jpg,-0.1,0,c,027,2019-06-09_19h32.04.761,Primed GoNogo,3.0.4,60,,,,,,,,,,,,,,,,,c,1,1,0,2,0,1,1,conditionsMaster1.csv,1,0,3,0,1,2,conditionsFile1.csv,1,0,1,0,1,0,conditions1.csv,"If you see a circle: 
always respond with the letter  C. 

If you see a square:
respond with the letter  M  only if the triangle is in the middle. 

DO NOT press anything if the triangle is positioned on the right.",1,0,80,39,1,79,0.365
,,,,,,,,,,square.jpg,0,0,m,027,2019-06-09_19h32.04.761,Primed GoNogo,3.0.4,60,,,,,,,,,,,,,,,,,m,1,1,0,2,0,1,1,conditionsMaster1.csv,1,0,3,0,1,2,conditionsFile1.csv,1,0,1,0,1,0,conditions1.csv,"If you see a circle: 
always respond with the letter  C. 

If you see a square:
respond with the letter  M  only if the triangle is in the middle. 

DO NOT press anything if the triangle is positioned on the right.",1,0,80,72,1,79,0.33
,,,,,,,,,,square.jpg,0,0,m,027,2019-06-09_19h32.04.761,Primed GoNogo,3.0.4,60,,,,,,,,,,,,,,,,,m,1,1,0,2,0,1,1,conditionsMaster1.csv,1,0,3,0,1,2,conditionsFile1.csv,1,0,1,0,1,0,conditions1.csv,"If you see a circle: 
always respond with the letter  C. 

If you see a square:
respond with the letter  M  only if the triangle is in the middle. 

DO NOT press anything if the triangle is positioned on the right.",1,0,80,42,1,79,0.263
,,,,,,,,,,square.jpg,0.1,0,none,027,2019-06-09_19h32.04.761,Primed GoNogo,3.0.4,60,,,,,,,,,,,,,,,,,,1,1,0,2,0,1,1,conditionsMaster1.csv,1,0,3,0,1,2,conditionsFile1.csv,1,0,1,0,1,0,conditions1.csv,"If you see a circle: 
always respond with the letter  C. 

If you see a square:
respond with the letter  M  only if the triangle is in the middle. 

DO NOT press anything if the triangle is positioned on the right.",1,0,80,59,1,79,
,,,,,,,,,,square.jpg,0,0,m,027,2019-06-09_19h32.04.761,Primed GoNogo,3.0.4,60,,,,,,,,,,,,,,,,,m,1,1,0,2,0,1,1,conditionsMaster1.csv,1,0,3,0,1,2,conditionsFile1.csv,1,0,1,0,1,0,conditions1.csv,"If you see a circle: 
always respond with the letter  C. 

If you see a square:
respond with the letter  M  only if the triangle is in the middle. 

DO NOT press anything if the triangle is positioned on the right.",1,0,80,50,1,79,0.111
,,,,,,,,,,square.jpg,0,0,m,027,2019-06-09_19h32.04.761,Primed GoNogo,3.0.4,60,,,,,,,,,,,,,,,m,0.686,m,1,1,0,2,0,1,1,conditionsMaster1.csv,1,0,3,0,1,2,conditionsFile1.csv,1,0,1,0,1,0,conditions1.csv,"If you see a circle: 
always respond with the letter  C. 

If you see a square:
respond with the letter  M  only if the triangle is in the middle. 

DO NOT press anything if the triangle is positioned on the right.",1,0,80,33,1,79,0.466
,,,,,,,,,,circle.jpg,0,0,c,027,2019-06-09_19h32.04.761,Primed GoNogo,3.0.4,60,,,,,,,,,,,,,,,c,0.681,c,1,1,0,2,0,1,1,conditionsMaster1.csv,1,0,3,0,1,2,conditionsFile1.csv,1,0,1,0,1,0,conditions1.csv,"If you see a circle: 
always respond with the letter  C. 

If you see a square:
respond with the letter  M  only if the triangle is in the middle. 

DO NOT press anything if the triangle is positioned on the right.",1,0,80,20,1,79,0.432
,,,,,,,,,,square.jpg,0,0,m,027,2019-06-09_19h32.04.761,Primed GoNogo,3.0.4,60,,,,,,,,,,,,,,,m,0.679,m,1,1,0,2,0,1,1,conditionsMaster1.csv,1,0,3,0,1,2,conditionsFile1.csv,1,0,1,0,1,0,conditions1.csv,"If you see a circle: 
always respond with the letter  C. 

If you see a square:
respond with the letter  M  only if the triangle is in the middle. 

DO NOT press anything if the triangle is positioned on the right.",1,0,80,32,1,79,0.394
,,,,,,,,,,square.jpg,0,0,m,027,2019-06-09_19h32.04.761,Primed GoNogo,3.0.4,60,,,,,,,,,,,,,,,,,m,1,1,0,2,0,1,1,conditionsMaster1.csv,1,0,3,0,1,2,conditionsFile1.csv,1,0,1,0,1,0,conditions1.csv,"If you see a circle: 
always respond with the letter  C. 

If you see a square:
respond with the letter  M  only if the triangle is in the middle. 

DO NOT press anything if the triangle is positioned on the right.",1,0,80,18,1,79,0.315
,,,,,,,,,,square.jpg,0,0,m,027,2019-06-09_19h32.04.761,Primed GoNogo,3.0.4,60,,,,,,,,,,,,,,,,,m,1,1,0,2,0,1,1,conditionsMaster1.csv,1,0,3,0,1,2,conditionsFile1.csv,1,0,1,0,1,0,conditions1.csv,"If you see a circle: 
always respond with the letter  C. 

If you see a square:
respond with the letter  M  only if the triangle is in the middle. 

DO NOT press anything if the triangle is positioned on the right.",1,0,80,9,1,79,0.312
,,,,,,,,,,circle.jpg,0,0,c,027,2019-06-09_19h32.04.761,Primed GoNogo,3.0.4,60,,,,,,,,,,,,,,,,,c,1,1,0,2,0,1,1,conditionsMaster1.csv,1,0,3,0,1,2,conditionsFile1.csv,1,0,1,0,1,0,conditions1.csv,"If you see a circle: 
always respond with the letter  C. 

If you see a square:
respond with the letter  M  only if the triangle is in the middle. 

DO NOT press anything if the triangle is positioned on the right.",1,0,80,4,1,79,0.366
,,,,,,,,,,circle.jpg,0,0,c,027,2019-06-09_19h32.04.761,Primed GoNogo,3.0.4,60,,,,,,,,,,,,,,,,,c,1,1,0,2,0,1,1,conditionsMaster1.csv,1,0,3,0,1,2,conditionsFile1.csv,1,0,1,0,1,0,conditions1.csv,"If you see a circle: 
always respond with the letter  C. 

If you see a square:
respond with the letter  M  only if the triangle is in the middle. 

DO NOT press anything if the triangle is positioned on the right.",1,0,80,69,1,79,0.465
,,,,,,,,,,circle.jpg,0,0,c,027,2019-06-09_19h32.04.761,Primed GoNogo,3.0.4,60,,,,,,,,,,,,,,,,,c,1,1,0,2,0,1,1,conditionsMaster1.csv,1,0,3,0,1,2,conditionsFile1.csv,1,0,1,0,1,0,conditions1.csv,"If you see a circle: 
always respond with the letter  C. 

If you see a square:
respond with the letter  M  only if the triangle is in the middle. 

DO NOT press anything if the triangle is positioned on the right.",1,0,80,29,1,79,0.477
,,,,,,,,,,square.jpg,0,0,m,027,2019-06-09_19h32.04.761,Primed GoNogo,3.0.4,60,,,,,,,,,,,,,,,,,,0,1,0,2,0,1,1,conditionsMaster1.csv,1,0,3,0,1,2,conditionsFile1.csv,1,0,1,0,1,0,conditions1.csv,"If you see a circle: 
always respond with the letter  C. 

If you see a square:
respond with the letter  M  only if the triangle is in the middle. 

DO NOT press anything if the triangle is positioned on the right.",1,0,80,41,1,79,
,,,,,,,,,,circle.jpg,0,0,c,027,2019-06-09_19h32.04.761,Primed GoNogo,3.0.4,60,,,,,,,,,,,,,,,c,0.829,c,1,1,0,2,0,1,1,conditionsMaster1.csv,1,0,3,0,1,2,conditionsFile1.csv,1,0,1,0,1,0,conditions1.csv,"If you see a circle: 
always respond with the letter  C. 

If you see a square:
respond with the letter  M  only if the triangle is in the middle. 

DO NOT press anything if the triangle is positioned on the right.",1,0,80,28,1,79,0.481
,,,,,,,,,,circle.jpg,0,0,c,027,2019-06-09_19h32.04.761,Primed GoNogo,3.0.4,60,,,,,,,,,,,,,,,,,c,1,1,0,2,0,1,1,conditionsMaster1.csv,1,0,3,0,1,2,conditionsFile1.csv,1,0,1,0,1,0,conditions1.csv,"If you see a circle: 
always respond with the letter  C. 

If you see a square:
respond with the letter  M  only if the triangle is in the middle. 

DO NOT press anything if the triangle is positioned on the right.",1,0,80,36,1,79,0.297
,,,,,,,,,,square.jpg,0.1,0,none,027,2019-06-09_19h32.04.761,Primed GoNogo,3.0.4,60,,,,,,,,,,,,,,,,,m,0,1,0,2,0,1,1,conditionsMaster1.csv,1,0,3,0,1,2,conditionsFile1.csv,1,0,1,0,1,0,conditions1.csv,"If you see a circle: 
always respond with the letter  C. 

If you see a square:
respond with the letter  M  only if the triangle is in the middle. 

DO NOT press anything if the triangle is positioned on the right.",1,0,80,51,1,79,0.196
,,,,,,,,,,circle.jpg,0,0,c,027,2019-06-09_19h32.04.761,Primed GoNogo,3.0.4,60,,,,,,,,,,,,,,,,,c,1,1,0,2,0,1,1,conditionsMaster1.csv,1,0,3,0,1,2,conditionsFile1.csv,1,0,1,0,1,0,conditions1.csv,"If you see a circle: 
always respond with the letter  C. 

If you see a square:
respond with the letter  M  only if the triangle is in the middle. 

DO NOT press anything if the triangle is positioned on the right.",1,0,80,62,1,79,0.212
,,,,,,,,,,circle.jpg,-0.1,0,c,027,2019-06-09_19h32.04.761,Primed GoNogo,3.0.4,60,,,,,,,,,,,,,,,,,,0,1,0,2,0,1,1,conditionsMaster1.csv,1,0,3,0,1,2,conditionsFile1.csv,1,0,1,0,1,0,conditions1.csv,"If you see a circle: 
always respond with the letter  C. 

If you see a square:
respond with the letter  M  only if the triangle is in the middle. 

DO NOT press anything if the triangle is positioned on the right.",1,0,80,63,1,79,
,,,,,,,,,,circle.jpg,0,0,c,027,2019-06-09_19h32.04.761,Primed GoNogo,3.0.4,60,,,,,,,,,,,,,,,c,0.798,c,1,1,0,2,0,1,1,conditionsMaster1.csv,1,0,3,0,1,2,conditionsFile1.csv,1,0,1,0,1,0,conditions1.csv,"If you see a circle: 
always respond with the letter  C. 

If you see a square:
respond with the letter  M  only if the triangle is in the middle. 

DO NOT press anything if the triangle is positioned on the right.",1,0,80,61,1,79,0.18
,,,,,,,,,,circle.jpg,0,0,c,027,2019-06-09_19h32.04.761,Primed GoNogo,3.0.4,60,,,,,,,,,,,,,,,c,0.66,c,1,1,0,2,0,1,1,conditionsMaster1.csv,1,0,3,0,1,2,conditionsFile1.csv,1,0,1,0,1,0,conditions1.csv,"If you see a circle: 
always respond with the letter  C. 

If you see a square:
respond with the letter  M  only if the triangle is in the middle. 

DO NOT press anything if the triangle is positioned on the right.",1,0,80,53,1,79,0.313
,,,,,,,,,,circle.jpg,-0.1,0,c,027,2019-06-09_19h32.04.761,Primed GoNogo,3.0.4,60,,,,,,,,,,,,,,,,,,0,1,0,2,0,1,1,conditionsMaster1.csv,1,0,3,0,1,2,conditionsFile1.csv,1,0,1,0,1,0,conditions1.csv,"If you see a circle: 
always respond with the letter  C. 

If you see a square:
respond with the letter  M  only if the triangle is in the middle. 

DO NOT press anything if the triangle is positioned on the right.",1,0,80,15,1,79,
,,,,,,,,,,square.jpg,0,0,m,027,2019-06-09_19h32.04.761,Primed GoNogo,3.0.4,60,,,,,,,,,,,,,,,m,0.763,m,1,1,0,2,0,1,1,conditionsMaster1.csv,1,0,3,0,1,2,conditionsFile1.csv,1,0,1,0,1,0,conditions1.csv,"If you see a circle: 
always respond with the letter  C. 

If you see a square:
respond with the letter  M  only if the triangle is in the middle. 

DO NOT press anything if the triangle is positioned on the right.",1,0,80,17,1,79,0.413
,,,,,,,,,,circle.jpg,0,0,c,027,2019-06-09_19h32.04.761,Primed GoNogo,3.0.4,60,,,,,,,,,,,,,,,c,0.33,,0,1,0,2,0,1,1,conditionsMaster1.csv,1,0,3,0,1,2,conditionsFile1.csv,1,0,1,0,1,0,conditions1.csv,"If you see a circle: 
always respond with the letter  C. 

If you see a square:
respond with the letter  M  only if the triangle is in the middle. 

DO NOT press anything if the triangle is positioned on the right.",1,0,80,68,1,79,
,,,,,,,,,,circle.jpg,0,0,c,027,2019-06-09_19h32.04.761,Primed GoNogo,3.0.4,60,,,,,,,,,,,,,,,,,c,1,1,0,2,0,1,1,conditionsMaster1.csv,1,0,3,0,1,2,conditionsFile1.csv,1,0,1,0,1,0,conditions1.csv,"If you see a circle: 
always respond with the letter  C. 

If you see a square:
respond with the letter  M  only if the triangle is in the middle. 

DO NOT press anything if the triangle is positioned on the right.",1,0,80,14,1,79,0.399
,,,,,,,,,,circle.jpg,-0.1,0,c,027,2019-06-09_19h32.04.761,Primed GoNogo,3.0.4,60,,,,,,,,,,,,,,,,,c,1,1,0,2,0,1,1,conditionsMaster1.csv,1,0,3,0,1,2,conditionsFile1.csv,1,0,1,0,1,0,conditions1.csv,"If you see a circle: 
always respond with the letter  C. 

If you see a square:
respond with the letter  M  only if the triangle is in the middle. 

DO NOT press anything if the triangle is positioned on the right.",1,0,80,23,1,79,0.23
,,,,,,,,,,square.jpg,0,0,m,027,2019-06-09_19h32.04.761,Primed GoNogo,3.0.4,60,,,,,,,,,,,,,,,m,0.897,,0,1,0,2,0,1,1,conditionsMaster1.csv,1,0,3,0,1,2,conditionsFile1.csv,1,0,1,0,1,0,conditions1.csv,"If you see a circle: 
always respond with the letter  C. 

If you see a square:
respond with the letter  M  only if the triangle is in the middle. 

DO NOT press anything if the triangle is positioned on the right.",1,0,80,56,1,79,
,,,,,,,,,,circle.jpg,0,0,c,027,2019-06-09_19h32.04.761,Primed GoNogo,3.0.4,60,,,,,,,,,,,,,,,,,c,1,1,0,2,0,1,1,conditionsMaster1.csv,1,0,3,0,1,2,conditionsFile1.csv,1,0,1,0,1,0,conditions1.csv,"If you see a circle: 
always respond with the letter  C. 

If you see a square:
respond with the letter  M  only if the triangle is in the middle. 

DO NOT press anything if the triangle is positioned on the right.",1,0,80,45,1,79,0.281
,,,,,,,,,,circle.jpg,0,0,c,027,2019-06-09_19h32.04.761,Primed GoNogo,3.0.4,60,,,,,,,,,,,,,,,,,c,1,1,0,2,0,1,1,conditionsMaster1.csv,1,0,3,0,1,2,conditionsFile1.csv,1,0,1,0,1,0,conditions1.csv,"If you see a circle: 
always respond with the letter  C. 

If you see a square:
respond with the letter  M  only if the triangle is in the middle. 

DO NOT press anything if the triangle is positioned on the right.",1,0,80,5,1,79,0.298
,,,,,,,,,,square.jpg,0,0,m,027,2019-06-09_19h32.04.761,Primed GoNogo,3.0.4,60,,,,,,,,,,,,,,,m,0.766,m,1,1,0,2,0,1,1,conditionsMaster1.csv,1,0,3,0,1,2,conditionsFile1.csv,1,0,1,0,1,0,conditions1.csv,"If you see a circle: 
always respond with the letter  C. 

If you see a square:
respond with the letter  M  only if the triangle is in the middle. 

DO NOT press anything if the triangle is positioned on the right.",1,0,80,0,1,79,0.361
,,,,,,,,,,circle.jpg,0,0,c,027,2019-06-09_19h32.04.761,Primed GoNogo,3.0.4,60,,,,,,,,,,,,,,,,,c,1,1,0,2,0,1,1,conditionsMaster1.csv,1,0,3,0,1,2,conditionsFile1.csv,1,0,1,0,1,0,conditions1.csv,"If you see a circle: 
always respond with the letter  C. 

If you see a square:
respond with the letter  M  only if the triangle is in the middle. 

DO NOT press anything if the triangle is positioned on the right.",1,0,80,77,1,79,0.528
,,,,,,,,,,square.jpg,0,0,m,027,2019-06-09_19h32.04.761,Primed GoNogo,3.0.4,60,,,,,,,,,,,,,,,m,0.65,m,1,1,0,2,0,1,1,conditionsMaster1.csv,1,0,3,0,1,2,conditionsFile1.csv,1,0,1,0,1,0,conditions1.csv,"If you see a circle: 
always respond with the letter  C. 

If you see a square:
respond with the letter  M  only if the triangle is in the middle. 

DO NOT press anything if the triangle is positioned on the right.",1,0,80,57,1,79,0.197
,,,,,,,,,,square.jpg,0,0,m,027,2019-06-09_19h32.04.761,Primed GoNogo,3.0.4,60,,,,,,,,,,,,,,,m,0.577,,0,1,0,2,0,1,1,conditionsMaster1.csv,1,0,3,0,1,2,conditionsFile1.csv,1,0,1,0,1,0,conditions1.csv,"If you see a circle: 
always respond with the letter  C. 

If you see a square:
respond with the letter  M  only if the triangle is in the middle. 

DO NOT press anything if the triangle is positioned on the right.",1,0,80,26,1,79,
,,,,,,,,,,circle.jpg,0,0,c,027,2019-06-09_19h32.04.761,Primed GoNogo,3.0.4,60,,,,,,,,,,,,,,,,,c,1,1,0,2,0,1,1,conditionsMaster1.csv,1,0,3,0,1,2,conditionsFile1.csv,1,0,1,0,1,0,conditions1.csv,"If you see a circle: 
always respond with the letter  C. 

If you see a square:
respond with the letter  M  only if the triangle is in the middle. 

DO NOT press anything if the triangle is positioned on the right.",1,0,80,38,1,79,0.399
,,,,,,,,,,circle.jpg,0,0,c,027,2019-06-09_19h32.04.761,Primed GoNogo,3.0.4,60,,,,,,,,,,,,,,,c,0.916,,0,1,0,2,0,1,1,conditionsMaster1.csv,1,0,3,0,1,2,conditionsFile1.csv,1,0,1,0,1,0,conditions1.csv,"If you see a circle: 
always respond with the letter  C. 

If you see a square:
respond with the letter  M  only if the triangle is in the middle. 

DO NOT press anything if the triangle is positioned on the right.",1,0,80,37,1,79,
,,,,,,,,,,circle.jpg,0,0,c,027,2019-06-09_19h32.04.761,Primed GoNogo,3.0.4,60,,,,,,,,,,,,,,,m,0.944,,0,1,0,2,0,1,1,conditionsMaster1.csv,1,0,3,0,1,2,conditionsFile1.csv,1,0,1,0,1,0,conditions1.csv,"If you see a circle: 
always respond with the letter  C. 

If you see a square:
respond with the letter  M  only if the triangle is in the middle. 

DO NOT press anything if the triangle is positioned on the right.",1,0,80,60,1,79,
,,,,,,,,,,square.jpg,0,0,m,027,2019-06-09_19h32.04.761,Primed GoNogo,3.0.4,60,,,,,,,,,,,,,,,,,m,1,1,0,2,0,1,1,conditionsMaster1.csv,1,0,3,0,1,2,conditionsFile1.csv,1,0,1,0,1,0,conditions1.csv,"If you see a circle: 
always respond with the letter  C. 

If you see a square:
respond with the letter  M  only if the triangle is in the middle. 

DO NOT press anything if the triangle is positioned on the right.",1,0,80,64,1,79,0.247
,,,,,,,,,,square.jpg,0,0,m,027,2019-06-09_19h32.04.761,Primed GoNogo,3.0.4,60,,,,,,,,,,,,,,,,,,0,1,0,2,0,1,1,conditionsMaster1.csv,1,0,3,0,1,2,conditionsFile1.csv,1,0,1,0,1,0,conditions1.csv,"If you see a circle: 
always respond with the letter  C. 

If you see a square:
respond with the letter  M  only if the triangle is in the middle. 

DO NOT press anything if the triangle is positioned on the right.",1,0,80,49,1,79,
,,,,,,,,,,circle.jpg,-0.1,0,c,027,2019-06-09_19h32.04.761,Primed GoNogo,3.0.4,60,,,,,,,,,,,,,,,c,0.644,,0,1,0,2,0,1,1,conditionsMaster1.csv,1,0,3,0,1,2,conditionsFile1.csv,1,0,1,0,1,0,conditions1.csv,"If you see a circle: 
always respond with the letter  C. 

If you see a square:
respond with the letter  M  only if the triangle is in the middle. 

DO NOT press anything if the triangle is positioned on the right.",1,0,80,7,1,79,
,,,,,,,,,,square.jpg,0.1,0,none,027,2019-06-09_19h32.04.761,Primed GoNogo,3.0.4,60,,,,,,,,,,,,,,,m,0.779,,1,1,0,2,0,1,1,conditionsMaster1.csv,1,0,3,0,1,2,conditionsFile1.csv,1,0,1,0,1,0,conditions1.csv,"If you see a circle: 
always respond with the letter  C. 

If you see a square:
respond with the letter  M  only if the triangle is in the middle. 

DO NOT press anything if the triangle is positioned on the right.",1,0,80,27,1,79,
,,,,,,,,,,square.jpg,0.1,0,none,027,2019-06-09_19h32.04.761,Primed GoNogo,3.0.4,60,,,,,,,,,,,,,,,,,m,0,1,0,2,0,1,1,conditionsMaster1.csv,1,0,3,0,1,2,conditionsFile1.csv,1,0,1,0,1,0,conditions1.csv,"If you see a circle: 
always respond with the letter  C. 

If you see a square:
respond with the letter  M  only if the triangle is in the middle. 

DO NOT press anything if the triangle is positioned on the right.",1,0,80,67,1,79,0.299
,,,,,,,,,,square.jpg,0,0,m,027,2019-06-09_19h32.04.761,Primed GoNogo,3.0.4,60,,,,,,,,,,,,,,,c,0.661,,0,1,0,2,0,1,1,conditionsMaster1.csv,1,0,3,0,1,2,conditionsFile1.csv,1,0,1,0,1,0,conditions1.csv,"If you see a circle: 
always respond with the letter  C. 

If you see a square:
respond with the letter  M  only if the triangle is in the middle. 

DO NOT press anything if the triangle is positioned on the right.",1,0,80,74,1,79,
,,,,,,,,,,square.jpg,0,0,m,027,2019-06-09_19h32.04.761,Primed GoNogo,3.0.4,60,,,,,,,,,,,,,,,,,,0,1,0,2,0,1,1,conditionsMaster1.csv,1,0,3,0,1,2,conditionsFile1.csv,1,0,1,0,1,0,conditions1.csv,"If you see a circle: 
always respond with the letter  C. 

If you see a square:
respond with the letter  M  only if the triangle is in the middle. 

DO NOT press anything if the triangle is positioned on the right.",1,0,80,25,1,79,
,,,,,,,,,,square.jpg,0,0,m,027,2019-06-09_19h32.04.761,Primed GoNogo,3.0.4,60,,,,,,,,,,,,,,,m,0.561,,0,1,0,2,0,1,1,conditionsMaster1.csv,1,0,3,0,1,2,conditionsFile1.csv,1,0,1,0,1,0,conditions1.csv,"If you see a circle: 
always respond with the letter  C. 

If you see a square:
respond with the letter  M  only if the triangle is in the middle. 

DO NOT press anything if the triangle is positioned on the right.",1,0,80,24,1,79,
,,,,,,,,,,square.jpg,0,0,m,027,2019-06-09_19h32.04.761,Primed GoNogo,3.0.4,60,,,,,,,,,,,,,,,m,0.628,,0,1,0,2,0,1,1,conditionsMaster1.csv,1,0,3,0,1,2,conditionsFile1.csv,1,0,1,0,1,0,conditions1.csv,"If you see a circle: 
always respond with the letter  C. 

If you see a square:
respond with the letter  M  only if the triangle is in the middle. 

DO NOT press anything if the triangle is positioned on the right.",1,0,80,66,1,79,
,,,,,,,,,,square.jpg,0,0,m,027,2019-06-09_19h32.04.761,Primed GoNogo,3.0.4,60,,,,,,,,,,,,,,,m,0.45,m,1,1,0,2,0,1,1,conditionsMaster1.csv,1,0,3,0,1,2,conditionsFile1.csv,1,0,1,0,1,0,conditions1.csv,"If you see a circle: 
always respond with the letter  C. 

If you see a square:
respond with the letter  M  only if the triangle is in the middle. 

DO NOT press anything if the triangle is positioned on the right.",1,0,80,40,1,79,0.31
,,,,,,,,,,square.jpg,0,0,m,027,2019-06-09_19h32.04.761,Primed GoNogo,3.0.4,60,,,,,,,,,,,,,,,m,0.861,m,1,1,0,2,0,1,1,conditionsMaster1.csv,1,0,3,0,1,2,conditionsFile1.csv,1,0,1,0,1,0,conditions1.csv,"If you see a circle: 
always respond with the letter  C. 

If you see a square:
respond with the letter  M  only if the triangle is in the middle. 

DO NOT press anything if the triangle is positioned on the right.",1,0,80,34,1,79,0.08
,,,,,,,,,,circle.jpg,0,0,c,027,2019-06-09_19h32.04.761,Primed GoNogo,3.0.4,60,,,,,,,,,,,,,,,c,0.646,c,1,1,0,2,0,1,1,conditionsMaster1.csv,1,0,3,0,1,2,conditionsFile1.csv,1,0,1,0,1,0,conditions1.csv,"If you see a circle: 
always respond with the letter  C. 

If you see a square:
respond with the letter  M  only if the triangle is in the middle. 

DO NOT press anything if the triangle is positioned on the right.",1,0,80,22,1,79,0.328
,,,,,,,,,,circle.jpg,0,0,c,027,2019-06-09_19h32.04.761,Primed GoNogo,3.0.4,60,,,,,,,,,,,,,,,c,0.343,c,1,1,0,2,0,1,1,conditionsMaster1.csv,1,0,3,0,1,2,conditionsFile1.csv,1,0,1,0,1,0,conditions1.csv,"If you see a circle: 
always respond with the letter  C. 

If you see a square:
respond with the letter  M  only if the triangle is in the middle. 

DO NOT press anything if the triangle is positioned on the right.",1,0,80,30,1,79,0.378
,,,,,,,,,,square.jpg,0,0,m,027,2019-06-09_19h32.04.761,Primed GoNogo,3.0.4,60,,,,,,,,,,,,,,,m,0.696,m,1,1,0,2,0,1,1,conditionsMaster1.csv,1,0,3,0,1,2,conditionsFile1.csv,1,0,1,0,1,0,conditions1.csv,"If you see a circle: 
always respond with the letter  C. 

If you see a square:
respond with the letter  M  only if the triangle is in the middle. 

DO NOT press anything if the triangle is positioned on the right.",1,0,80,65,1,79,0.281
,,,,,,,,,,square.jpg,0.1,0,none,027,2019-06-09_19h32.04.761,Primed GoNogo,3.0.4,60,,,,,,,,,,,,,,,m,0.726,m,0,1,0,2,0,1,1,conditionsMaster1.csv,1,0,3,0,1,2,conditionsFile1.csv,1,0,1,0,1,0,conditions1.csv,"If you see a circle: 
always respond with the letter  C. 

If you see a square:
respond with the letter  M  only if the triangle is in the middle. 

DO NOT press anything if the triangle is positioned on the right.",1,0,80,11,1,79,0.163
,,,,,,,,,,circle.jpg,-0.1,0,c,027,2019-06-09_19h32.04.761,Primed GoNogo,3.0.4,60,,,,,,,,,,,,,,,c,0.596,,0,1,0,2,0,1,1,conditionsMaster1.csv,1,0,3,0,1,2,conditionsFile1.csv,1,0,1,0,1,0,conditions1.csv,"If you see a circle: 
always respond with the letter  C. 

If you see a square:
respond with the letter  M  only if the triangle is in the middle. 

DO NOT press anything if the triangle is positioned on the right.",1,0,80,71,1,79,
,,,,,,,,,,square.jpg,0.1,0,none,027,2019-06-09_19h32.04.761,Primed GoNogo,3.0.4,60,,,,,,,,,,,,,,,m,0.83,m,0,1,0,2,0,1,1,conditionsMaster1.csv,1,0,3,0,1,2,conditionsFile1.csv,1,0,1,0,1,0,conditions1.csv,"If you see a circle: 
always respond with the letter  C. 

If you see a square:
respond with the letter  M  only if the triangle is in the middle. 

DO NOT press anything if the triangle is positioned on the right.",1,0,80,35,1,79,0.062
,,,,,,,,,,circle.jpg,0,0,c,027,2019-06-09_19h32.04.761,Primed GoNogo,3.0.4,60,,,,,,,,,,,,,,,c,0.748,c,1,1,0,2,0,1,1,conditionsMaster1.csv,1,0,3,0,1,2,conditionsFile1.csv,1,0,1,0,1,0,conditions1.csv,"If you see a circle: 
always respond with the letter  C. 

If you see a square:
respond with the letter  M  only if the triangle is in the middle. 

DO NOT press anything if the triangle is positioned on the right.",1,0,80,44,1,79,0.082
,,,,,,,,,,square.jpg,0,0,m,027,2019-06-09_19h32.04.761,Primed GoNogo,3.0.4,60,,,,,,,,,,,,,,,m,0.879,m,1,1,0,2,0,1,1,conditionsMaster1.csv,1,0,3,0,1,2,conditionsFile1.csv,1,0,1,0,1,0,conditions1.csv,"If you see a circle: 
always respond with the letter  C. 

If you see a square:
respond with the letter  M  only if the triangle is in the middle. 

DO NOT press anything if the triangle is positioned on the right.",1,0,80,2,1,79,0.179
,,,,,,,,,,square.jpg,0,0,m,027,2019-06-09_19h32.04.761,Primed GoNogo,3.0.4,60,,,,,,,,,,,,,,,,,,0,1,0,2,0,1,1,conditionsMaster1.csv,1,0,3,0,1,2,conditionsFile1.csv,1,0,1,0,1,0,conditions1.csv,"If you see a circle: 
always respond with the letter  C. 

If you see a square:
respond with the letter  M  only if the triangle is in the middle. 

DO NOT press anything if the triangle is positioned on the right.",1,0,80,1,1,79,
,,,,,,,,,,circle.jpg,0,0,c,027,2019-06-09_19h32.04.761,Primed GoNogo,3.0.4,60,,,,,,,,,,,,,,,c,0.332,c,1,1,0,2,0,1,1,conditionsMaster1.csv,1,0,3,0,1,2,conditionsFile1.csv,1,0,1,0,1,0,conditions1.csv,"If you see a circle: 
always respond with the letter  C. 

If you see a square:
respond with the letter  M  only if the triangle is in the middle. 

DO NOT press anything if the triangle is positioned on the right.",1,0,80,78,1,79,0.048
,,,,,,,,,,square.jpg,0,0,m,027,2019-06-09_19h32.04.761,Primed GoNogo,3.0.4,60,,,,,,,,,,,,,,,m,0.349,m,1,1,0,2,0,1,1,conditionsMaster1.csv,1,0,3,0,1,2,conditionsFile1.csv,1,0,1,0,1,0,conditions1.csv,"If you see a circle: 
always respond with the letter  C. 

If you see a square:
respond with the letter  M  only if the triangle is in the middle. 

DO NOT press anything if the triangle is positioned on the right.",1,0,80,8,1,79,0.38
,,,,,,,,,,circle.jpg,0,0,c,027,2019-06-09_19h32.04.761,Primed GoNogo,3.0.4,60,,,,,,,,,,,,,,,c,0.411,c,1,1,0,2,0,1,1,conditionsMaster1.csv,1,0,3,0,1,2,conditionsFile1.csv,1,0,1,0,1,0,conditions1.csv,"If you see a circle: 
always respond with the letter  C. 

If you see a square:
respond with the letter  M  only if the triangle is in the middle. 

DO NOT press anything if the triangle is positioned on the right.",1,0,80,6,1,79,0.246
,,,,,,,,,,circle.jpg,0,0,c,027,2019-06-09_19h32.04.761,Primed GoNogo,3.0.4,60,,,,,,,,,,,,,,,m,0.295,c,1,1,0,2,0,1,1,conditionsMaster1.csv,1,0,3,0,1,2,conditionsFile1.csv,1,0,1,0,1,0,conditions1.csv,"If you see a circle: 
always respond with the letter  C. 

If you see a square:
respond with the letter  M  only if the triangle is in the middle. 

DO NOT press anything if the triangle is positioned on the right.",1,0,80,54,1,79,0.281
,,,,,,,,,,square.jpg,0,0,m,027,2019-06-09_19h32.04.761,Primed GoNogo,3.0.4,60,,,,,,,,,,,,,,,m,0.381,m,1,1,0,2,0,1,1,conditionsMaster1.csv,1,0,3,0,1,2,conditionsFile1.csv,1,0,1,0,1,0,conditions1.csv,"If you see a circle: 
always respond with the letter  C. 

If you see a square:
respond with the letter  M  only if the triangle is in the middle. 

DO NOT press anything if the triangle is positioned on the right.",1,0,80,58,1,79,0.048
,,,,,,,,,,,,,,027,2019-06-09_19h32.04.761,Primed GoNogo,3.0.4,60,,,,,,,,,,,,,,,,,,,1,0,2,0,1,1,conditionsMaster1.csv,1,0,3,0,1,2,conditionsFile1.csv,1,0,1,0,1,0,conditions1.csv,"If you see a circle: 
always respond with the letter  C. 

If you see a square:
respond with the letter  M  only if the triangle is in the middle. 

DO NOT press anything if the triangle is positioned on the right.",,,,,,,
,,,,,,,,,,,,,,027,2019-06-09_19h32.04.761,Primed GoNogo,3.0.4,60,,,,,,,,,,,,,,,,,,,1,0,2,0,1,1,conditionsMaster1.csv,1,0,3,0,1,2,conditionsFile1.csv,,,,,,,,,,,,,,,
,,,,,,,,,,circle.jpg,0,0,c,027,2019-06-09_19h32.04.761,Primed GoNogo,3.0.4,60,,,,,,,,,,,,,,,c,0.594,c,1,1,0,2,0,1,1,conditionsMaster1.csv,1,0,3,1,1,2,conditionsFile2.csv,1,0,1,0,1,0,conditions2.csv,"If you see a circle: 
respond with the letter  C   only if the triangle is in the middle. 

DO NOT press anything if the triangle is positioned on the left.
 

If you see a square:
Always respond with the letter  M   
",1,0,80,53,1,79,0.463
,,,,,,,,,,square.jpg,0,0,m,027,2019-06-09_19h32.04.761,Primed GoNogo,3.0.4,60,,,,,,,,,,,,,,,m,0.644,,0,1,0,2,0,1,1,conditionsMaster1.csv,1,0,3,1,1,2,conditionsFile2.csv,1,0,1,0,1,0,conditions2.csv,"If you see a circle: 
respond with the letter  C   only if the triangle is in the middle. 

DO NOT press anything if the triangle is positioned on the left.
 

If you see a square:
Always respond with the letter  M   
",1,0,80,33,1,79,
,,,,,,,,,,circle.jpg,0,0,c,027,2019-06-09_19h32.04.761,Primed GoNogo,3.0.4,60,,,,,,,,,,,,,,,,,c,1,1,0,2,0,1,1,conditionsMaster1.csv,1,0,3,1,1,2,conditionsFile2.csv,1,0,1,0,1,0,conditions2.csv,"If you see a circle: 
respond with the letter  C   only if the triangle is in the middle. 

DO NOT press anything if the triangle is positioned on the left.
 

If you see a square:
Always respond with the letter  M   
",1,0,80,62,1,79,0.259
,,,,,,,,,,circle.jpg,0,0,c,027,2019-06-09_19h32.04.761,Primed GoNogo,3.0.4,60,,,,,,,,,,,,,,,c,0.431,,0,1,0,2,0,1,1,conditionsMaster1.csv,1,0,3,1,1,2,conditionsFile2.csv,1,0,1,0,1,0,conditions2.csv,"If you see a circle: 
respond with the letter  C   only if the triangle is in the middle. 

DO NOT press anything if the triangle is positioned on the left.
 

If you see a square:
Always respond with the letter  M   
",1,0,80,38,1,79,
,,,,,,,,,,circle.jpg,-0.1,0,none,027,2019-06-09_19h32.04.761,Primed GoNogo,3.0.4,60,,,,,,,,,,,,,,,m,0.577,,1,1,0,2,0,1,1,conditionsMaster1.csv,1,0,3,1,1,2,conditionsFile2.csv,1,0,1,0,1,0,conditions2.csv,"If you see a circle: 
respond with the letter  C   only if the triangle is in the middle. 

DO NOT press anything if the triangle is positioned on the left.
 

If you see a square:
Always respond with the letter  M   
",1,0,80,23,1,79,
,,,,,,,,,,circle.jpg,0,0,c,027,2019-06-09_19h32.04.761,Primed GoNogo,3.0.4,60,,,,,,,,,,,,,,,m,0.147,,0,1,0,2,0,1,1,conditionsMaster1.csv,1,0,3,1,1,2,conditionsFile2.csv,1,0,1,0,1,0,conditions2.csv,"If you see a circle: 
respond with the letter  C   only if the triangle is in the middle. 

DO NOT press anything if the triangle is positioned on the left.
 

If you see a square:
Always respond with the letter  M   
",1,0,80,78,1,79,
,,,,,,,,,,circle.jpg,0,0,c,027,2019-06-09_19h32.04.761,Primed GoNogo,3.0.4,60,,,,,,,,,,,,,,,c,0.209,,0,1,0,2,0,1,1,conditionsMaster1.csv,1,0,3,1,1,2,conditionsFile2.csv,1,0,1,0,1,0,conditions2.csv,"If you see a circle: 
respond with the letter  C   only if the triangle is in the middle. 

DO NOT press anything if the triangle is positioned on the left.
 

If you see a square:
Always respond with the letter  M   
",1,0,80,61,1,79,
,,,,,,,,,,circle.jpg,-0.1,0,none,027,2019-06-09_19h32.04.761,Primed GoNogo,3.0.4,60,,,,,,,,,,,,,,,c,0.128,,1,1,0,2,0,1,1,conditionsMaster1.csv,1,0,3,1,1,2,conditionsFile2.csv,1,0,1,0,1,0,conditions2.csv,"If you see a circle: 
respond with the letter  C   only if the triangle is in the middle. 

DO NOT press anything if the triangle is positioned on the left.
 

If you see a square:
Always respond with the letter  M   
",1,0,80,63,1,79,
,,,,,,,,,,square.jpg,0,0,m,027,2019-06-09_19h32.04.761,Primed GoNogo,3.0.4,60,,,,,,,,,,,,,,,m,0.396,m,1,1,0,2,0,1,1,conditionsMaster1.csv,1,0,3,1,1,2,conditionsFile2.csv,1,0,1,0,1,0,conditions2.csv,"If you see a circle: 
respond with the letter  C   only if the triangle is in the middle. 

DO NOT press anything if the triangle is positioned on the left.
 

If you see a square:
Always respond with the letter  M   
",1,0,80,57,1,79,0.513
,,,,,,,,,,square.jpg,0,0,m,027,2019-06-09_19h32.04.761,Primed GoNogo,3.0.4,60,,,,,,,,,,,,,,,c,0.147,c,0,1,0,2,0,1,1,conditionsMaster1.csv,1,0,3,1,1,2,conditionsFile2.csv,1,0,1,0,1,0,conditions2.csv,"If you see a circle: 
respond with the letter  C   only if the triangle is in the middle. 

DO NOT press anything if the triangle is positioned on the left.
 

If you see a square:
Always respond with the letter  M   
",1,0,80,9,1,79,0.496
,,,,,,,,,,square.jpg,0.1,0,m,027,2019-06-09_19h32.04.761,Primed GoNogo,3.0.4,60,,,,,,,,,,,,,,,c,0.748,m,1,1,0,2,0,1,1,conditionsMaster1.csv,1,0,3,1,1,2,conditionsFile2.csv,1,0,1,0,1,0,conditions2.csv,"If you see a circle: 
respond with the letter  C   only if the triangle is in the middle. 

DO NOT press anything if the triangle is positioned on the left.
 

If you see a square:
Always respond with the letter  M   
",1,0,80,27,1,79,0.161
,,,,,,,,,,square.jpg,0,0,m,027,2019-06-09_19h32.04.761,Primed GoNogo,3.0.4,60,,,,,,,,,,,,,,,m,0.662,m,1,1,0,2,0,1,1,conditionsMaster1.csv,1,0,3,1,1,2,conditionsFile2.csv,1,0,1,0,1,0,conditions2.csv,"If you see a circle: 
respond with the letter  C   only if the triangle is in the middle. 

DO NOT press anything if the triangle is positioned on the left.
 

If you see a square:
Always respond with the letter  M   
",1,0,80,2,1,79,0.483
,,,,,,,,,,circle.jpg,-0.1,0,none,027,2019-06-09_19h32.04.761,Primed GoNogo,3.0.4,60,,,,,,,,,,,,,,,c,0.378,c,0,1,0,2,0,1,1,conditionsMaster1.csv,1,0,3,1,1,2,conditionsFile2.csv,1,0,1,0,1,0,conditions2.csv,"If you see a circle: 
respond with the letter  C   only if the triangle is in the middle. 

DO NOT press anything if the triangle is positioned on the left.
 

If you see a square:
Always respond with the letter  M   
",1,0,80,79,1,79,0.03
,,,,,,,,,,circle.jpg,0,0,c,027,2019-06-09_19h32.04.761,Primed GoNogo,3.0.4,60,,,,,,,,,,,,,,,m,0.196,m,0,1,0,2,0,1,1,conditionsMaster1.csv,1,0,3,1,1,2,conditionsFile2.csv,1,0,1,0,1,0,conditions2.csv,"If you see a circle: 
respond with the letter  C   only if the triangle is in the middle. 

DO NOT press anything if the triangle is positioned on the left.
 

If you see a square:
Always respond with the letter  M   
",1,0,80,13,1,79,0.229
,,,,,,,,,,circle.jpg,0,0,c,027,2019-06-09_19h32.04.761,Primed GoNogo,3.0.4,60,,,,,,,,,,,,,,,m,0.462,c,1,1,0,2,0,1,1,conditionsMaster1.csv,1,0,3,1,1,2,conditionsFile2.csv,1,0,1,0,1,0,conditions2.csv,"If you see a circle: 
respond with the letter  C   only if the triangle is in the middle. 

DO NOT press anything if the triangle is positioned on the left.
 

If you see a square:
Always respond with the letter  M   
",1,0,80,6,1,79,0.066
,,,,,,,,,,circle.jpg,-0.1,0,none,027,2019-06-09_19h32.04.761,Primed GoNogo,3.0.4,60,,,,,,,,,,,,,,,,,c,0,1,0,2,0,1,1,conditionsMaster1.csv,1,0,3,1,1,2,conditionsFile2.csv,1,0,1,0,1,0,conditions2.csv,"If you see a circle: 
respond with the letter  C   only if the triangle is in the middle. 

DO NOT press anything if the triangle is positioned on the left.
 

If you see a square:
Always respond with the letter  M   
",1,0,80,39,1,79,0.081
,,,,,,,,,,circle.jpg,0,0,c,027,2019-06-09_19h32.04.761,Primed GoNogo,3.0.4,60,,,,,,,,,,,,,,,c,0.578,c,1,1,0,2,0,1,1,conditionsMaster1.csv,1,0,3,1,1,2,conditionsFile2.csv,1,0,1,0,1,0,conditions2.csv,"If you see a circle: 
respond with the letter  C   only if the triangle is in the middle. 

DO NOT press anything if the triangle is positioned on the left.
 

If you see a square:
Always respond with the letter  M   
",1,0,80,60,1,79,0.012
,,,,,,,,,,circle.jpg,0,0,c,027,2019-06-09_19h32.04.761,Primed GoNogo,3.0.4,60,,,,,,,,,,,,,,,c,0.593,c,1,1,0,2,0,1,1,conditionsMaster1.csv,1,0,3,1,1,2,conditionsFile2.csv,1,0,1,0,1,0,conditions2.csv,"If you see a circle: 
respond with the letter  C   only if the triangle is in the middle. 

DO NOT press anything if the triangle is positioned on the left.
 

If you see a square:
Always respond with the letter  M   
",1,0,80,4,1,79,0.379
,,,,,,,,,,circle.jpg,0,0,c,027,2019-06-09_19h32.04.761,Primed GoNogo,3.0.4,60,,,,,,,,,,,,,,,c,0.58,c,1,1,0,2,0,1,1,conditionsMaster1.csv,1,0,3,1,1,2,conditionsFile2.csv,1,0,1,0,1,0,conditions2.csv,"If you see a circle: 
respond with the letter  C   only if the triangle is in the middle. 

DO NOT press anything if the triangle is positioned on the left.
 

If you see a square:
Always respond with the letter  M   
",1,0,80,28,1,79,0.046
,,,,,,,,,,circle.jpg,0,0,c,027,2019-06-09_19h32.04.761,Primed GoNogo,3.0.4,60,,,,,,,,,,,,,,,c,0.314,c,1,1,0,2,0,1,1,conditionsMaster1.csv,1,0,3,1,1,2,conditionsFile2.csv,1,0,1,0,1,0,conditions2.csv,"If you see a circle: 
respond with the letter  C   only if the triangle is in the middle. 

DO NOT press anything if the triangle is positioned on the left.
 

If you see a square:
Always respond with the letter  M   
",1,0,80,22,1,79,0.079
,,,,,,,,,,square.jpg,0,0,m,027,2019-06-09_19h32.04.761,Primed GoNogo,3.0.4,60,,,,,,,,,,,,,,,m,0.677,m,1,1,0,2,0,1,1,conditionsMaster1.csv,1,0,3,1,1,2,conditionsFile2.csv,1,0,1,0,1,0,conditions2.csv,"If you see a circle: 
respond with the letter  C   only if the triangle is in the middle. 

DO NOT press anything if the triangle is positioned on the left.
 

If you see a square:
Always respond with the letter  M   
",1,0,80,18,1,79,0.145
,,,,,,,,,,square.jpg,0,0,m,027,2019-06-09_19h32.04.761,Primed GoNogo,3.0.4,60,,,,,,,,,,,,,,,m,0.377,,0,1,0,2,0,1,1,conditionsMaster1.csv,1,0,3,1,1,2,conditionsFile2.csv,1,0,1,0,1,0,conditions2.csv,"If you see a circle: 
respond with the letter  C   only if the triangle is in the middle. 

DO NOT press anything if the triangle is positioned on the left.
 

If you see a square:
Always respond with the letter  M   
",1,0,80,26,1,79,
,,,,,,,,,,square.jpg,0.1,0,m,027,2019-06-09_19h32.04.761,Primed GoNogo,3.0.4,60,,,,,,,,,,,,,,,m,0.548,m,1,1,0,2,0,1,1,conditionsMaster1.csv,1,0,3,1,1,2,conditionsFile2.csv,1,0,1,0,1,0,conditions2.csv,"If you see a circle: 
respond with the letter  C   only if the triangle is in the middle. 

DO NOT press anything if the triangle is positioned on the left.
 

If you see a square:
Always respond with the letter  M   
",1,0,80,3,1,79,0.113
,,,,,,,,,,square.jpg,0.1,0,m,027,2019-06-09_19h32.04.761,Primed GoNogo,3.0.4,60,,,,,,,,,,,,,,,c,0.344,m,1,1,0,2,0,1,1,conditionsMaster1.csv,1,0,3,1,1,2,conditionsFile2.csv,1,0,1,0,1,0,conditions2.csv,"If you see a circle: 
respond with the letter  C   only if the triangle is in the middle. 

DO NOT press anything if the triangle is positioned on the left.
 

If you see a square:
Always respond with the letter  M   
",1,0,80,75,1,79,0.012
,,,,,,,,,,circle.jpg,-0.1,0,none,027,2019-06-09_19h32.04.761,Primed GoNogo,3.0.4,60,,,,,,,,,,,,,,,c,0.577,,1,1,0,2,0,1,1,conditionsMaster1.csv,1,0,3,1,1,2,conditionsFile2.csv,1,0,1,0,1,0,conditions2.csv,"If you see a circle: 
respond with the letter  C   only if the triangle is in the middle. 

DO NOT press anything if the triangle is positioned on the left.
 

If you see a square:
Always respond with the letter  M   
",1,0,80,71,1,79,
,,,,,,,,,,square.jpg,0,0,m,027,2019-06-09_19h32.04.761,Primed GoNogo,3.0.4,60,,,,,,,,,,,,,,,m,0.396,m,1,1,0,2,0,1,1,conditionsMaster1.csv,1,0,3,1,1,2,conditionsFile2.csv,1,0,1,0,1,0,conditions2.csv,"If you see a circle: 
respond with the letter  C   only if the triangle is in the middle. 

DO NOT press anything if the triangle is positioned on the left.
 

If you see a square:
Always respond with the letter  M   
",1,0,80,49,1,79,0.044
,,,,,,,,,,circle.jpg,0,0,c,027,2019-06-09_19h32.04.761,Primed GoNogo,3.0.4,60,,,,,,,,,,,,,,,c,0.282,c,1,1,0,2,0,1,1,conditionsMaster1.csv,1,0,3,1,1,2,conditionsFile2.csv,1,0,1,0,1,0,conditions2.csv,"If you see a circle: 
respond with the letter  C   only if the triangle is in the middle. 

DO NOT press anything if the triangle is positioned on the left.
 

If you see a square:
Always respond with the letter  M   
",1,0,80,52,1,79,0.066
,,,,,,,,,,square.jpg,0.1,0,m,027,2019-06-09_19h32.04.761,Primed GoNogo,3.0.4,60,,,,,,,,,,,,,,,m,0.468,m,1,1,0,2,0,1,1,conditionsMaster1.csv,1,0,3,1,1,2,conditionsFile2.csv,1,0,1,0,1,0,conditions2.csv,"If you see a circle: 
respond with the letter  C   only if the triangle is in the middle. 

DO NOT press anything if the triangle is positioned on the left.
 

If you see a square:
Always respond with the letter  M   
",1,0,80,35,1,79,0.044
,,,,,,,,,,circle.jpg,0,0,c,027,2019-06-09_19h32.04.761,Primed GoNogo,3.0.4,60,,,,,,,,,,,,,,,c,0.461,c,1,1,0,2,0,1,1,conditionsMaster1.csv,1,0,3,1,1,2,conditionsFile2.csv,1,0,1,0,1,0,conditions2.csv,"If you see a circle: 
respond with the letter  C   only if the triangle is in the middle. 

DO NOT press anything if the triangle is positioned on the left.
 

If you see a square:
Always respond with the letter  M   
",1,0,80,29,1,79,0.064
,,,,,,,,,,square.jpg,0,0,m,027,2019-06-09_19h32.04.761,Primed GoNogo,3.0.4,60,,,,,,,,,,,,,,,m,0.461,m,1,1,0,2,0,1,1,conditionsMaster1.csv,1,0,3,1,1,2,conditionsFile2.csv,1,0,1,0,1,0,conditions2.csv,"If you see a circle: 
respond with the letter  C   only if the triangle is in the middle. 

DO NOT press anything if the triangle is positioned on the left.
 

If you see a square:
Always respond with the letter  M   
",1,0,80,8,1,79,0.049
,,,,,,,,,,square.jpg,0,0,m,027,2019-06-09_19h32.04.761,Primed GoNogo,3.0.4,60,,,,,,,,,,,,,,,c,0.18,m,1,1,0,2,0,1,1,conditionsMaster1.csv,1,0,3,1,1,2,conditionsFile2.csv,1,0,1,0,1,0,conditions2.csv,"If you see a circle: 
respond with the letter  C   only if the triangle is in the middle. 

DO NOT press anything if the triangle is positioned on the left.
 

If you see a square:
Always respond with the letter  M   
",1,0,80,40,1,79,0.062
,,,,,,,,,,square.jpg,0.1,0,m,027,2019-06-09_19h32.04.761,Primed GoNogo,3.0.4,60,,,,,,,,,,,,,,,m,0.598,,0,1,0,2,0,1,1,conditionsMaster1.csv,1,0,3,1,1,2,conditionsFile2.csv,1,0,1,0,1,0,conditions2.csv,"If you see a circle: 
respond with the letter  C   only if the triangle is in the middle. 

DO NOT press anything if the triangle is positioned on the left.
 

If you see a square:
Always respond with the letter  M   
",1,0,80,59,1,79,
,,,,,,,,,,square.jpg,0,0,m,027,2019-06-09_19h32.04.761,Primed GoNogo,3.0.4,60,,,,,,,,,,,,,,,m,0.428,,0,1,0,2,0,1,1,conditionsMaster1.csv,1,0,3,1,1,2,conditionsFile2.csv,1,0,1,0,1,0,conditions2.csv,"If you see a circle: 
respond with the letter  C   only if the triangle is in the middle. 

DO NOT press anything if the triangle is positioned on the left.
 

If you see a square:
Always respond with the letter  M   
",1,0,80,58,1,79,
,,,,,,,,,,circle.jpg,0,0,c,027,2019-06-09_19h32.04.761,Primed GoNogo,3.0.4,60,,,,,,,,,,,,,,,m,0.38,c,1,1,0,2,0,1,1,conditionsMaster1.csv,1,0,3,1,1,2,conditionsFile2.csv,1,0,1,0,1,0,conditions2.csv,"If you see a circle: 
respond with the letter  C   only if the triangle is in the middle. 

DO NOT press anything if the triangle is positioned on the left.
 

If you see a square:
Always respond with the letter  M   
",1,0,80,37,1,79,0.096
,,,,,,,,,,square.jpg,0.1,0,m,027,2019-06-09_19h32.04.761,Primed GoNogo,3.0.4,60,,,,,,,,,,,,,,,m,0.594,,0,1,0,2,0,1,1,conditionsMaster1.csv,1,0,3,1,1,2,conditionsFile2.csv,1,0,1,0,1,0,conditions2.csv,"If you see a circle: 
respond with the letter  C   only if the triangle is in the middle. 

DO NOT press anything if the triangle is positioned on the left.
 

If you see a square:
Always respond with the letter  M   
",1,0,80,51,1,79,
,,,,,,,,,,circle.jpg,-0.1,0,none,027,2019-06-09_19h32.04.761,Primed GoNogo,3.0.4,60,,,,,,,,,,,,,,,c,0.367,,1,1,0,2,0,1,1,conditionsMaster1.csv,1,0,3,1,1,2,conditionsFile2.csv,1,0,1,0,1,0,conditions2.csv,"If you see a circle: 
respond with the letter  C   only if the triangle is in the middle. 

DO NOT press anything if the triangle is positioned on the left.
 

If you see a square:
Always respond with the letter  M   
",1,0,80,47,1,79,
,,,,,,,,,,circle.jpg,0,0,c,027,2019-06-09_19h32.04.761,Primed GoNogo,3.0.4,60,,,,,,,,,,,,,,,c,0.63,,0,1,0,2,0,1,1,conditionsMaster1.csv,1,0,3,1,1,2,conditionsFile2.csv,1,0,1,0,1,0,conditions2.csv,"If you see a circle: 
respond with the letter  C   only if the triangle is in the middle. 

DO NOT press anything if the triangle is positioned on the left.
 

If you see a square:
Always respond with the letter  M   
",1,0,80,77,1,79,
,,,,,,,,,,square.jpg,0,0,m,027,2019-06-09_19h32.04.761,Primed GoNogo,3.0.4,60,,,,,,,,,,,,,,,m,0.395,,0,1,0,2,0,1,1,conditionsMaster1.csv,1,0,3,1,1,2,conditionsFile2.csv,1,0,1,0,1,0,conditions2.csv,"If you see a circle: 
respond with the letter  C   only if the triangle is in the middle. 

DO NOT press anything if the triangle is positioned on the left.
 

If you see a square:
Always respond with the letter  M   
",1,0,80,74,1,79,
,,,,,,,,,,circle.jpg,0,0,c,027,2019-06-09_19h32.04.761,Primed GoNogo,3.0.4,60,,,,,,,,,,,,,,,c,0.596,c,1,1,0,2,0,1,1,conditionsMaster1.csv,1,0,3,1,1,2,conditionsFile2.csv,1,0,1,0,1,0,conditions2.csv,"If you see a circle: 
respond with the letter  C   only if the triangle is in the middle. 

DO NOT press anything if the triangle is positioned on the left.
 

If you see a square:
Always respond with the letter  M   
",1,0,80,5,1,79,0.029
,,,,,,,,,,square.jpg,0,0,m,027,2019-06-09_19h32.04.761,Primed GoNogo,3.0.4,60,,,,,,,,,,,,,,,m,0.63,m,1,1,0,2,0,1,1,conditionsMaster1.csv,1,0,3,1,1,2,conditionsFile2.csv,1,0,1,0,1,0,conditions2.csv,"If you see a circle: 
respond with the letter  C   only if the triangle is in the middle. 

DO NOT press anything if the triangle is positioned on the left.
 

If you see a square:
Always respond with the letter  M   
",1,0,80,0,1,79,0.146
,,,,,,,,,,circle.jpg,-0.1,0,none,027,2019-06-09_19h32.04.761,Primed GoNogo,3.0.4,60,,,,,,,,,,,,,,,c,0.762,c,0,1,0,2,0,1,1,conditionsMaster1.csv,1,0,3,1,1,2,conditionsFile2.csv,1,0,1,0,1,0,conditions2.csv,"If you see a circle: 
respond with the letter  C   only if the triangle is in the middle. 

DO NOT press anything if the triangle is positioned on the left.
 

If you see a square:
Always respond with the letter  M   
",1,0,80,7,1,79,0.076
,,,,,,,,,,circle.jpg,-0.1,0,none,027,2019-06-09_19h32.04.761,Primed GoNogo,3.0.4,60,,,,,,,,,,,,,,,c,0.529,c,0,1,0,2,0,1,1,conditionsMaster1.csv,1,0,3,1,1,2,conditionsFile2.csv,1,0,1,0,1,0,conditions2.csv,"If you see a circle: 
respond with the letter  C   only if the triangle is in the middle. 

DO NOT press anything if the triangle is positioned on the left.
 

If you see a square:
Always respond with the letter  M   
",1,0,80,31,1,79,0.032
,,,,,,,,,,square.jpg,0,0,m,027,2019-06-09_19h32.04.761,Primed GoNogo,3.0.4,60,,,,,,,,,,,,,,,m,0.264,,0,1,0,2,0,1,1,conditionsMaster1.csv,1,0,3,1,1,2,conditionsFile2.csv,1,0,1,0,1,0,conditions2.csv,"If you see a circle: 
respond with the letter  C   only if the triangle is in the middle. 

DO NOT press anything if the triangle is positioned on the left.
 

If you see a square:
Always respond with the letter  M   
",1,0,80,73,1,79,
,,,,,,,,,,circle.jpg,0,0,c,027,2019-06-09_19h32.04.761,Primed GoNogo,3.0.4,60,,,,,,,,,,,,,,,c,0.133,,0,1,0,2,0,1,1,conditionsMaster1.csv,1,0,3,1,1,2,conditionsFile2.csv,1,0,1,0,1,0,conditions2.csv,"If you see a circle: 
respond with the letter  C   only if the triangle is in the middle. 

DO NOT press anything if the triangle is positioned on the left.
 

If you see a square:
Always respond with the letter  M   
",1,0,80,30,1,79,
,,,,,,,,,,circle.jpg,0,0,c,027,2019-06-09_19h32.04.761,Primed GoNogo,3.0.4,60,,,,,,,,,,,,,,,m,0.296,,0,1,0,2,0,1,1,conditionsMaster1.csv,1,0,3,1,1,2,conditionsFile2.csv,1,0,1,0,1,0,conditions2.csv,"If you see a circle: 
respond with the letter  C   only if the triangle is in the middle. 

DO NOT press anything if the triangle is positioned on the left.
 

If you see a square:
Always respond with the letter  M   
",1,0,80,20,1,79,
,,,,,,,,,,square.jpg,0,0,m,027,2019-06-09_19h32.04.761,Primed GoNogo,3.0.4,60,,,,,,,,,,,,,,,c,0.146,c,0,1,0,2,0,1,1,conditionsMaster1.csv,1,0,3,1,1,2,conditionsFile2.csv,1,0,1,0,1,0,conditions2.csv,"If you see a circle: 
respond with the letter  C   only if the triangle is in the middle. 

DO NOT press anything if the triangle is positioned on the left.
 

If you see a square:
Always respond with the letter  M   
",1,0,80,1,1,79,0.297
,,,,,,,,,,square.jpg,0,0,m,027,2019-06-09_19h32.04.761,Primed GoNogo,3.0.4,60,,,,,,,,,,,,,,,m,0.828,m,1,1,0,2,0,1,1,conditionsMaster1.csv,1,0,3,1,1,2,conditionsFile2.csv,1,0,1,0,1,0,conditions2.csv,"If you see a circle: 
respond with the letter  C   only if the triangle is in the middle. 

DO NOT press anything if the triangle is positioned on the left.
 

If you see a square:
Always respond with the letter  M   
",1,0,80,50,1,79,0.279
,,,,,,,,,,square.jpg,0,0,m,027,2019-06-09_19h32.04.761,Primed GoNogo,3.0.4,60,,,,,,,,,,,,,,,m,0.511,,0,1,0,2,0,1,1,conditionsMaster1.csv,1,0,3,1,1,2,conditionsFile2.csv,1,0,1,0,1,0,conditions2.csv,"If you see a circle: 
respond with the letter  C   only if the triangle is in the middle. 

DO NOT press anything if the triangle is positioned on the left.
 

If you see a square:
Always respond with the letter  M   
",1,0,80,41,1,79,
,,,,,,,,,,circle.jpg,0,0,c,027,2019-06-09_19h32.04.761,Primed GoNogo,3.0.4,60,,,,,,,,,,,,,,,c,0.427,c,1,1,0,2,0,1,1,conditionsMaster1.csv,1,0,3,1,1,2,conditionsFile2.csv,1,0,1,0,1,0,conditions2.csv,"If you see a circle: 
respond with the letter  C   only if the triangle is in the middle. 

DO NOT press anything if the triangle is positioned on the left.
 

If you see a square:
Always respond with the letter  M   
",1,0,80,44,1,79,0.145
,,,,,,,,,,circle.jpg,0,0,c,027,2019-06-09_19h32.04.761,Primed GoNogo,3.0.4,60,,,,,,,,,,,,,,,m,0.294,m,0,1,0,2,0,1,1,conditionsMaster1.csv,1,0,3,1,1,2,conditionsFile2.csv,1,0,1,0,1,0,conditions2.csv,"If you see a circle: 
respond with the letter  C   only if the triangle is in the middle. 

DO NOT press anything if the triangle is positioned on the left.
 

If you see a square:
Always respond with the letter  M   
",1,0,80,21,1,79,0.548
,,,,,,,,,,circle.jpg,0,0,c,027,2019-06-09_19h32.04.761,Primed GoNogo,3.0.4,60,,,,,,,,,,,,,,,m,0.365,m,0,1,0,2,0,1,1,conditionsMaster1.csv,1,0,3,1,1,2,conditionsFile2.csv,1,0,1,0,1,0,conditions2.csv,"If you see a circle: 
respond with the letter  C   only if the triangle is in the middle. 

DO NOT press anything if the triangle is positioned on the left.
 

If you see a square:
Always respond with the letter  M   
",1,0,80,12,1,79,0.126
,,,,,,,,,,circle.jpg,0,0,c,027,2019-06-09_19h32.04.761,Primed GoNogo,3.0.4,60,,,,,,,,,,,,,,,c,0.296,c,1,1,0,2,0,1,1,conditionsMaster1.csv,1,0,3,1,1,2,conditionsFile2.csv,1,0,1,0,1,0,conditions2.csv,"If you see a circle: 
respond with the letter  C   only if the triangle is in the middle. 

DO NOT press anything if the triangle is positioned on the left.
 

If you see a square:
Always respond with the letter  M   
",1,0,80,36,1,79,0.079
,,,,,,,,,,circle.jpg,0,0,c,027,2019-06-09_19h32.04.761,Primed GoNogo,3.0.4,60,,,,,,,,,,,,,,,c,0.331,c,1,1,0,2,0,1,1,conditionsMaster1.csv,1,0,3,1,1,2,conditionsFile2.csv,1,0,1,0,1,0,conditions2.csv,"If you see a circle: 
respond with the letter  C   only if the triangle is in the middle. 

DO NOT press anything if the triangle is positioned on the left.
 

If you see a square:
Always respond with the letter  M   
",1,0,80,76,1,79,0.095
,,,,,,,,,,circle.jpg,0,0,c,027,2019-06-09_19h32.04.761,Primed GoNogo,3.0.4,60,,,,,,,,,,,,,,,m,0.096,,0,1,0,2,0,1,1,conditionsMaster1.csv,1,0,3,1,1,2,conditionsFile2.csv,1,0,1,0,1,0,conditions2.csv,"If you see a circle: 
respond with the letter  C   only if the triangle is in the middle. 

DO NOT press anything if the triangle is positioned on the left.
 

If you see a square:
Always respond with the letter  M   
",1,0,80,45,1,79,
,,,,,,,,,,square.jpg,0,0,m,027,2019-06-09_19h32.04.761,Primed GoNogo,3.0.4,60,,,,,,,,,,,,,,,c,0.31,m,1,1,0,2,0,1,1,conditionsMaster1.csv,1,0,3,1,1,2,conditionsFile2.csv,1,0,1,0,1,0,conditions2.csv,"If you see a circle: 
respond with the letter  C   only if the triangle is in the middle. 

DO NOT press anything if the triangle is positioned on the left.
 

If you see a square:
Always respond with the letter  M   
",1,0,80,42,1,79,0.077
,,,,,,,,,,square.jpg,0.1,0,m,027,2019-06-09_19h32.04.761,Primed GoNogo,3.0.4,60,,,,,,,,,,,,,,,m,0.495,m,1,1,0,2,0,1,1,conditionsMaster1.csv,1,0,3,1,1,2,conditionsFile2.csv,1,0,1,0,1,0,conditions2.csv,"If you see a circle: 
respond with the letter  C   only if the triangle is in the middle. 

DO NOT press anything if the triangle is positioned on the left.
 

If you see a square:
Always respond with the letter  M   
",1,0,80,67,1,79,0.031
,,,,,,,,,,square.jpg,0,0,m,027,2019-06-09_19h32.04.761,Primed GoNogo,3.0.4,60,,,,,,,,,,,,,,,m,0.346,,0,1,0,2,0,1,1,conditionsMaster1.csv,1,0,3,1,1,2,conditionsFile2.csv,1,0,1,0,1,0,conditions2.csv,"If you see a circle: 
respond with the letter  C   only if the triangle is in the middle. 

DO NOT press anything if the triangle is positioned on the left.
 

If you see a square:
Always respond with the letter  M   
",1,0,80,16,1,79,
,,,,,,,,,,circle.jpg,-0.1,0,none,027,2019-06-09_19h32.04.761,Primed GoNogo,3.0.4,60,,,,,,,,,,,,,,,c,0.597,c,0,1,0,2,0,1,1,conditionsMaster1.csv,1,0,3,1,1,2,conditionsFile2.csv,1,0,1,0,1,0,conditions2.csv,"If you see a circle: 
respond with the letter  C   only if the triangle is in the middle. 

DO NOT press anything if the triangle is positioned on the left.
 

If you see a square:
Always respond with the letter  M   
",1,0,80,15,1,79,0.148
,,,,,,,,,,square.jpg,0,0,m,027,2019-06-09_19h32.04.761,Primed GoNogo,3.0.4,60,,,,,,,,,,,,,,,c,0.249,m,1,1,0,2,0,1,1,conditionsMaster1.csv,1,0,3,1,1,2,conditionsFile2.csv,1,0,1,0,1,0,conditions2.csv,"If you see a circle: 
respond with the letter  C   only if the triangle is in the middle. 

DO NOT press anything if the triangle is positioned on the left.
 

If you see a square:
Always respond with the letter  M   
",1,0,80,25,1,79,0.462
,,,,,,,,,,circle.jpg,0,0,c,027,2019-06-09_19h32.04.761,Primed GoNogo,3.0.4,60,,,,,,,,,,,,,,,c,0.448,c,1,1,0,2,0,1,1,conditionsMaster1.csv,1,0,3,1,1,2,conditionsFile2.csv,1,0,1,0,1,0,conditions2.csv,"If you see a circle: 
respond with the letter  C   only if the triangle is in the middle. 

DO NOT press anything if the triangle is positioned on the left.
 

If you see a square:
Always respond with the letter  M   
",1,0,80,69,1,79,0.128
,,,,,,,,,,square.jpg,0.1,0,m,027,2019-06-09_19h32.04.761,Primed GoNogo,3.0.4,60,,,,,,,,,,,,,,,m,0.295,,0,1,0,2,0,1,1,conditionsMaster1.csv,1,0,3,1,1,2,conditionsFile2.csv,1,0,1,0,1,0,conditions2.csv,"If you see a circle: 
respond with the letter  C   only if the triangle is in the middle. 

DO NOT press anything if the triangle is positioned on the left.
 

If you see a square:
Always respond with the letter  M   
",1,0,80,19,1,79,
,,,,,,,,,,circle.jpg,-0.1,0,none,027,2019-06-09_19h32.04.761,Primed GoNogo,3.0.4,60,,,,,,,,,,,,,,,m,0.247,,1,1,0,2,0,1,1,conditionsMaster1.csv,1,0,3,1,1,2,conditionsFile2.csv,1,0,1,0,1,0,conditions2.csv,"If you see a circle: 
respond with the letter  C   only if the triangle is in the middle. 

DO NOT press anything if the triangle is positioned on the left.
 

If you see a square:
Always respond with the letter  M   
",1,0,80,55,1,79,
,,,,,,,,,,square.jpg,0.1,0,m,027,2019-06-09_19h32.04.761,Primed GoNogo,3.0.4,60,,,,,,,,,,,,,,,c,0.693,c,0,1,0,2,0,1,1,conditionsMaster1.csv,1,0,3,1,1,2,conditionsFile2.csv,1,0,1,0,1,0,conditions2.csv,"If you see a circle: 
respond with the letter  C   only if the triangle is in the middle. 

DO NOT press anything if the triangle is positioned on the left.
 

If you see a square:
Always respond with the letter  M   
",1,0,80,11,1,79,0.147
,,,,,,,,,,square.jpg,0.1,0,m,027,2019-06-09_19h32.04.761,Primed GoNogo,3.0.4,60,,,,,,,,,,,,,,,m,0.396,,0,1,0,2,0,1,1,conditionsMaster1.csv,1,0,3,1,1,2,conditionsFile2.csv,1,0,1,0,1,0,conditions2.csv,"If you see a circle: 
respond with the letter  C   only if the triangle is in the middle. 

DO NOT press anything if the triangle is positioned on the left.
 

If you see a square:
Always respond with the letter  M   
",1,0,80,43,1,79,
,,,,,,,,,,square.jpg,0,0,m,027,2019-06-09_19h32.04.761,Primed GoNogo,3.0.4,60,,,,,,,,,,,,,,,m,0.476,m,1,1,0,2,0,1,1,conditionsMaster1.csv,1,0,3,1,1,2,conditionsFile2.csv,1,0,1,0,1,0,conditions2.csv,"If you see a circle: 
respond with the letter  C   only if the triangle is in the middle. 

DO NOT press anything if the triangle is positioned on the left.
 

If you see a square:
Always respond with the letter  M   
",1,0,80,32,1,79,0.079
,,,,,,,,,,square.jpg,0,0,m,027,2019-06-09_19h32.04.761,Primed GoNogo,3.0.4,60,,,,,,,,,,,,,,,m,0.482,m,1,1,0,2,0,1,1,conditionsMaster1.csv,1,0,3,1,1,2,conditionsFile2.csv,1,0,1,0,1,0,conditions2.csv,"If you see a circle: 
respond with the letter  C   only if the triangle is in the middle. 

DO NOT press anything if the triangle is positioned on the left.
 

If you see a square:
Always respond with the letter  M   
",1,0,80,56,1,79,0.164
,,,,,,,,,,circle.jpg,0,0,c,027,2019-06-09_19h32.04.761,Primed GoNogo,3.0.4,60,,,,,,,,,,,,,,,c,0.478,c,1,1,0,2,0,1,1,conditionsMaster1.csv,1,0,3,1,1,2,conditionsFile2.csv,1,0,1,0,1,0,conditions2.csv,"If you see a circle: 
respond with the letter  C   only if the triangle is in the middle. 

DO NOT press anything if the triangle is positioned on the left.
 

If you see a square:
Always respond with the letter  M   
",1,0,80,54,1,79,0.014
,,,,,,,,,,square.jpg,0,0,m,027,2019-06-09_19h32.04.761,Primed GoNogo,3.0.4,60,,,,,,,,,,,,,,,m,0.447,m,1,1,0,2,0,1,1,conditionsMaster1.csv,1,0,3,1,1,2,conditionsFile2.csv,1,0,1,0,1,0,conditions2.csv,"If you see a circle: 
respond with the letter  C   only if the triangle is in the middle. 

DO NOT press anything if the triangle is positioned on the left.
 

If you see a square:
Always respond with the letter  M   
",1,0,80,17,1,79,0.061
,,,,,,,,,,square.jpg,0,0,m,027,2019-06-09_19h32.04.761,Primed GoNogo,3.0.4,60,,,,,,,,,,,,,,,c,0.345,m,1,1,0,2,0,1,1,conditionsMaster1.csv,1,0,3,1,1,2,conditionsFile2.csv,1,0,1,0,1,0,conditions2.csv,"If you see a circle: 
respond with the letter  C   only if the triangle is in the middle. 

DO NOT press anything if the triangle is positioned on the left.
 

If you see a square:
Always respond with the letter  M   
",1,0,80,72,1,79,0.162
,,,,,,,,,,square.jpg,0,0,m,027,2019-06-09_19h32.04.761,Primed GoNogo,3.0.4,60,,,,,,,,,,,,,,,c,0.278,,0,1,0,2,0,1,1,conditionsMaster1.csv,1,0,3,1,1,2,conditionsFile2.csv,1,0,1,0,1,0,conditions2.csv,"If you see a circle: 
respond with the letter  C   only if the triangle is in the middle. 

DO NOT press anything if the triangle is positioned on the left.
 

If you see a square:
Always respond with the letter  M   
",1,0,80,34,1,79,
,,,,,,,,,,circle.jpg,0,0,c,027,2019-06-09_19h32.04.761,Primed GoNogo,3.0.4,60,,,,,,,,,,,,,,,c,0.595,c,1,1,0,2,0,1,1,conditionsMaster1.csv,1,0,3,1,1,2,conditionsFile2.csv,1,0,1,0,1,0,conditions2.csv,"If you see a circle: 
respond with the letter  C   only if the triangle is in the middle. 

DO NOT press anything if the triangle is positioned on the left.
 

If you see a square:
Always respond with the letter  M   
",1,0,80,46,1,79,0.296
,,,,,,,,,,square.jpg,0,0,m,027,2019-06-09_19h32.04.761,Primed GoNogo,3.0.4,60,,,,,,,,,,,,,,,m,0.581,m,1,1,0,2,0,1,1,conditionsMaster1.csv,1,0,3,1,1,2,conditionsFile2.csv,1,0,1,0,1,0,conditions2.csv,"If you see a circle: 
respond with the letter  C   only if the triangle is in the middle. 

DO NOT press anything if the triangle is positioned on the left.
 

If you see a square:
Always respond with the letter  M   
",1,0,80,64,1,79,0.094
,,,,,,,,,,square.jpg,0,0,m,027,2019-06-09_19h32.04.761,Primed GoNogo,3.0.4,60,,,,,,,,,,,,,,,m,0.475,m,1,1,0,2,0,1,1,conditionsMaster1.csv,1,0,3,1,1,2,conditionsFile2.csv,1,0,1,0,1,0,conditions2.csv,"If you see a circle: 
respond with the letter  C   only if the triangle is in the middle. 

DO NOT press anything if the triangle is positioned on the left.
 

If you see a square:
Always respond with the letter  M   
",1,0,80,48,1,79,0.149
,,,,,,,,,,square.jpg,0,0,m,027,2019-06-09_19h32.04.761,Primed GoNogo,3.0.4,60,,,,,,,,,,,,,,,m,0.463,m,1,1,0,2,0,1,1,conditionsMaster1.csv,1,0,3,1,1,2,conditionsFile2.csv,1,0,1,0,1,0,conditions2.csv,"If you see a circle: 
respond with the letter  C   only if the triangle is in the middle. 

DO NOT press anything if the triangle is positioned on the left.
 

If you see a square:
Always respond with the letter  M   
",1,0,80,65,1,79,0.129
,,,,,,,,,,circle.jpg,0,0,c,027,2019-06-09_19h32.04.761,Primed GoNogo,3.0.4,60,,,,,,,,,,,,,,,m,0.349,m,0,1,0,2,0,1,1,conditionsMaster1.csv,1,0,3,1,1,2,conditionsFile2.csv,1,0,1,0,1,0,conditions2.csv,"If you see a circle: 
respond with the letter  C   only if the triangle is in the middle. 

DO NOT press anything if the triangle is positioned on the left.
 

If you see a square:
Always respond with the letter  M   
",1,0,80,14,1,79,0.064
,,,,,,,,,,square.jpg,0,0,m,027,2019-06-09_19h32.04.761,Primed GoNogo,3.0.4,60,,,,,,,,,,,,,,,m,0.41,m,1,1,0,2,0,1,1,conditionsMaster1.csv,1,0,3,1,1,2,conditionsFile2.csv,1,0,1,0,1,0,conditions2.csv,"If you see a circle: 
respond with the letter  C   only if the triangle is in the middle. 

DO NOT press anything if the triangle is positioned on the left.
 

If you see a square:
Always respond with the letter  M   
",1,0,80,10,1,79,0.081
,,,,,,,,,,square.jpg,0,0,m,027,2019-06-09_19h32.04.761,Primed GoNogo,3.0.4,60,,,,,,,,,,,,,,,m,0.279,m,1,1,0,2,0,1,1,conditionsMaster1.csv,1,0,3,1,1,2,conditionsFile2.csv,1,0,1,0,1,0,conditions2.csv,"If you see a circle: 
respond with the letter  C   only if the triangle is in the middle. 

DO NOT press anything if the triangle is positioned on the left.
 

If you see a square:
Always respond with the letter  M   
",1,0,80,24,1,79,0.129
,,,,,,,,,,circle.jpg,0,0,c,027,2019-06-09_19h32.04.761,Primed GoNogo,3.0.4,60,,,,,,,,,,,,,,,c,0.395,c,1,1,0,2,0,1,1,conditionsMaster1.csv,1,0,3,1,1,2,conditionsFile2.csv,1,0,1,0,1,0,conditions2.csv,"If you see a circle: 
respond with the letter  C   only if the triangle is in the middle. 

DO NOT press anything if the triangle is positioned on the left.
 

If you see a square:
Always respond with the letter  M   
",1,0,80,70,1,79,0.265
,,,,,,,,,,circle.jpg,0,0,c,027,2019-06-09_19h32.04.761,Primed GoNogo,3.0.4,60,,,,,,,,,,,,,,,c,0.413,c,1,1,0,2,0,1,1,conditionsMaster1.csv,1,0,3,1,1,2,conditionsFile2.csv,1,0,1,0,1,0,conditions2.csv,"If you see a circle: 
respond with the letter  C   only if the triangle is in the middle. 

DO NOT press anything if the triangle is positioned on the left.
 

If you see a square:
Always respond with the letter  M   
",1,0,80,68,1,79,0.047
,,,,,,,,,,square.jpg,0,0,m,027,2019-06-09_19h32.04.761,Primed GoNogo,3.0.4,60,,,,,,,,,,,,,,,m,0.515,m,1,1,0,2,0,1,1,conditionsMaster1.csv,1,0,3,1,1,2,conditionsFile2.csv,1,0,1,0,1,0,conditions2.csv,"If you see a circle: 
respond with the letter  C   only if the triangle is in the middle. 

DO NOT press anything if the triangle is positioned on the left.
 

If you see a square:
Always respond with the letter  M   
",1,0,80,66,1,79,0.163
,,,,,,,,,,,,,,027,2019-06-09_19h32.04.761,Primed GoNogo,3.0.4,60,,,,,,,,,,,,,,,,,,,1,0,2,0,1,1,conditionsMaster1.csv,1,0,3,1,1,2,conditionsFile2.csv,1,0,1,0,1,0,conditions2.csv,"If you see a circle: 
respond with the letter  C   only if the triangle is in the middle. 

DO NOT press anything if the triangle is positioned on the left.
 

If you see a square:
Always respond with the letter  M   
",,,,,,,
,,,,,,,,,,,,,,027,2019-06-09_19h32.04.761,Primed GoNogo,3.0.4,60,,,,,,,,,,,,,,,,,,,1,0,2,0,1,1,conditionsMaster1.csv,1,0,3,1,1,2,conditionsFile2.csv,,,,,,,,,,,,,,,
,,,,,,,,,,square.jpg,0,0,m,027,2019-06-09_19h32.04.761,Primed GoNogo,3.0.4,60,,,,,,,,,,,,,,,m,0.732,,0,1,0,2,0,1,1,conditionsMaster1.csv,1,0,3,2,1,2,conditionsFile1.csv,1,0,1,0,1,0,conditions1.csv,"If you see a circle: 
always respond with the letter  C. 

If you see a square:
respond with the letter  M  only if the triangle is in the middle. 

DO NOT press anything if the triangle is positioned on the right.",1,0,80,56,1,79,
,,,,,,,,,,square.jpg,0,0,m,027,2019-06-09_19h32.04.761,Primed GoNogo,3.0.4,60,,,,,,,,,,,,,,,m,0.545,,0,1,0,2,0,1,1,conditionsMaster1.csv,1,0,3,2,1,2,conditionsFile1.csv,1,0,1,0,1,0,conditions1.csv,"If you see a circle: 
always respond with the letter  C. 

If you see a square:
respond with the letter  M  only if the triangle is in the middle. 

DO NOT press anything if the triangle is positioned on the right.",1,0,80,26,1,79,
,,,,,,,,,,square.jpg,0,0,m,027,2019-06-09_19h32.04.761,Primed GoNogo,3.0.4,60,,,,,,,,,,,,,,,m,0.264,,0,1,0,2,0,1,1,conditionsMaster1.csv,1,0,3,2,1,2,conditionsFile1.csv,1,0,1,0,1,0,conditions1.csv,"If you see a circle: 
always respond with the letter  C. 

If you see a square:
respond with the letter  M  only if the triangle is in the middle. 

DO NOT press anything if the triangle is positioned on the right.",1,0,80,33,1,79,
,,,,,,,,,,circle.jpg,0,0,c,027,2019-06-09_19h32.04.761,Primed GoNogo,3.0.4,60,,,,,,,,,,,,,,,,,m,0,1,0,2,0,1,1,conditionsMaster1.csv,1,0,3,2,1,2,conditionsFile1.csv,1,0,1,0,1,0,conditions1.csv,"If you see a circle: 
always respond with the letter  C. 

If you see a square:
respond with the letter  M  only if the triangle is in the middle. 

DO NOT press anything if the triangle is positioned on the right.",1,0,80,78,1,79,0.282
,,,,,,,,,,circle.jpg,-0.1,0,c,027,2019-06-09_19h32.04.761,Primed GoNogo,3.0.4,60,,,,,,,,,,,,,,,,,c,1,1,0,2,0,1,1,conditionsMaster1.csv,1,0,3,2,1,2,conditionsFile1.csv,1,0,1,0,1,0,conditions1.csv,"If you see a circle: 
always respond with the letter  C. 

If you see a square:
respond with the letter  M  only if the triangle is in the middle. 

DO NOT press anything if the triangle is positioned on the right.",1,0,80,47,1,79,0.012
,,,,,,,,,,square.jpg,0,0,m,027,2019-06-09_19h32.04.761,Primed GoNogo,3.0.4,60,,,,,,,,,,,,,,,m,0.882,m,1,1,0,2,0,1,1,conditionsMaster1.csv,1,0,3,2,1,2,conditionsFile1.csv,1,0,1,0,1,0,conditions1.csv,"If you see a circle: 
always respond with the letter  C. 

If you see a square:
respond with the letter  M  only if the triangle is in the middle. 

DO NOT press anything if the triangle is positioned on the right.",1,0,80,32,1,79,0.044
,,,,,,,,,,square.jpg,0,0,m,027,2019-06-09_19h32.04.761,Primed GoNogo,3.0.4,60,,,,,,,,,,,,,,,m,0.493,m,1,1,0,2,0,1,1,conditionsMaster1.csv,1,0,3,2,1,2,conditionsFile1.csv,1,0,1,0,1,0,conditions1.csv,"If you see a circle: 
always respond with the letter  C. 

If you see a square:
respond with the letter  M  only if the triangle is in the middle. 

DO NOT press anything if the triangle is positioned on the right.",1,0,80,58,1,79,0.126
,,,,,,,,,,circle.jpg,-0.1,0,c,027,2019-06-09_19h32.04.761,Primed GoNogo,3.0.4,60,,,,,,,,,,,,,,,m,0.38,c,1,1,0,2,0,1,1,conditionsMaster1.csv,1,0,3,2,1,2,conditionsFile1.csv,1,0,1,0,1,0,conditions1.csv,"If you see a circle: 
always respond with the letter  C. 

If you see a square:
respond with the letter  M  only if the triangle is in the middle. 

DO NOT press anything if the triangle is positioned on the right.",1,0,80,79,1,79,0.094
,,,,,,,,,,square.jpg,0,0,m,027,2019-06-09_19h32.04.761,Primed GoNogo,3.0.4,60,,,,,,,,,,,,,,,m,0.263,m,1,1,0,2,0,1,1,conditionsMaster1.csv,1,0,3,2,1,2,conditionsFile1.csv,1,0,1,0,1,0,conditions1.csv,"If you see a circle: 
always respond with the letter  C. 

If you see a square:
respond with the letter  M  only if the triangle is in the middle. 

DO NOT press anything if the triangle is positioned on the right.",1,0,80,40,1,79,0.112
,,,,,,,,,,circle.jpg,0,0,c,027,2019-06-09_19h32.04.761,Primed GoNogo,3.0.4,60,,,,,,,,,,,,,,,c,0.293,,0,1,0,2,0,1,1,conditionsMaster1.csv,1,0,3,2,1,2,conditionsFile1.csv,1,0,1,0,1,0,conditions1.csv,"If you see a circle: 
always respond with the letter  C. 

If you see a square:
respond with the letter  M  only if the triangle is in the middle. 

DO NOT press anything if the triangle is positioned on the right.",1,0,80,46,1,79,
,,,,,,,,,,circle.jpg,0,0,c,027,2019-06-09_19h32.04.761,Primed GoNogo,3.0.4,60,,,,,,,,,,,,,,,m,0.226,m,0,1,0,2,0,1,1,conditionsMaster1.csv,1,0,3,2,1,2,conditionsFile1.csv,1,0,1,0,1,0,conditions1.csv,"If you see a circle: 
always respond with the letter  C. 

If you see a square:
respond with the letter  M  only if the triangle is in the middle. 

DO NOT press anything if the triangle is positioned on the right.",1,0,80,76,1,79,0.012
,,,,,,,,,,circle.jpg,0,0,c,027,2019-06-09_19h32.04.761,Primed GoNogo,3.0.4,60,,,,,,,,,,,,,,,c,0.563,c,1,1,0,2,0,1,1,conditionsMaster1.csv,1,0,3,2,1,2,conditionsFile1.csv,1,0,1,0,1,0,conditions1.csv,"If you see a circle: 
always respond with the letter  C. 

If you see a square:
respond with the letter  M  only if the triangle is in the middle. 

DO NOT press anything if the triangle is positioned on the right.",1,0,80,54,1,79,0.296
,,,,,,,,,,circle.jpg,0,0,c,027,2019-06-09_19h32.04.761,Primed GoNogo,3.0.4,60,,,,,,,,,,,,,,,c,0.746,c,1,1,0,2,0,1,1,conditionsMaster1.csv,1,0,3,2,1,2,conditionsFile1.csv,1,0,1,0,1,0,conditions1.csv,"If you see a circle: 
always respond with the letter  C. 

If you see a square:
respond with the letter  M  only if the triangle is in the middle. 

DO NOT press anything if the triangle is positioned on the right.",1,0,80,12,1,79,0.095
,,,,,,,,,,square.jpg,0.1,0,none,027,2019-06-09_19h32.04.761,Primed GoNogo,3.0.4,60,,,,,,,,,,,,,,,m,0.399,m,0,1,0,2,0,1,1,conditionsMaster1.csv,1,0,3,2,1,2,conditionsFile1.csv,1,0,1,0,1,0,conditions1.csv,"If you see a circle: 
always respond with the letter  C. 

If you see a square:
respond with the letter  M  only if the triangle is in the middle. 

DO NOT press anything if the triangle is positioned on the right.",1,0,80,67,1,79,0.11
,,,,,,,,,,circle.jpg,0,0,c,027,2019-06-09_19h32.04.761,Primed GoNogo,3.0.4,60,,,,,,,,,,,,,,,c,0.512,c,1,1,0,2,0,1,1,conditionsMaster1.csv,1,0,3,2,1,2,conditionsFile1.csv,1,0,1,0,1,0,conditions1.csv,"If you see a circle: 
always respond with the letter  C. 

If you see a square:
respond with the letter  M  only if the triangle is in the middle. 

DO NOT press anything if the triangle is positioned on the right.",1,0,80,21,1,79,0.032
,,,,,,,,,,square.jpg,0,0,m,027,2019-06-09_19h32.04.761,Primed GoNogo,3.0.4,60,,,,,,,,,,,,,,,m,0.678,m,1,1,0,2,0,1,1,conditionsMaster1.csv,1,0,3,2,1,2,conditionsFile1.csv,1,0,1,0,1,0,conditions1.csv,"If you see a circle: 
always respond with the letter  C. 

If you see a square:
respond with the letter  M  only if the triangle is in the middle. 

DO NOT press anything if the triangle is positioned on the right.",1,0,80,57,1,79,0.031
,,,,,,,,,,square.jpg,0,0,m,027,2019-06-09_19h32.04.761,Primed GoNogo,3.0.4,60,,,,,,,,,,,,,,,m,0.629,m,1,1,0,2,0,1,1,conditionsMaster1.csv,1,0,3,2,1,2,conditionsFile1.csv,1,0,1,0,1,0,conditions1.csv,"If you see a circle: 
always respond with the letter  C. 

If you see a square:
respond with the letter  M  only if the triangle is in the middle. 

DO NOT press anything if the triangle is positioned on the right.",1,0,80,10,1,79,0.146
,,,,,,,,,,circle.jpg,0,0,c,027,2019-06-09_19h32.04.761,Primed GoNogo,3.0.4,60,,,,,,,,,,,,,,,c,0.345,c,1,1,0,2,0,1,1,conditionsMaster1.csv,1,0,3,2,1,2,conditionsFile1.csv,1,0,1,0,1,0,conditions1.csv,"If you see a circle: 
always respond with the letter  C. 

If you see a square:
respond with the letter  M  only if the triangle is in the middle. 

DO NOT press anything if the triangle is positioned on the right.",1,0,80,45,1,79,0.198
,,,,,,,,,,square.jpg,0,0,m,027,2019-06-09_19h32.04.761,Primed GoNogo,3.0.4,60,,,,,,,,,,,,,,,m,0.501,m,1,1,0,2,0,1,1,conditionsMaster1.csv,1,0,3,2,1,2,conditionsFile1.csv,1,0,1,0,1,0,conditions1.csv,"If you see a circle: 
always respond with the letter  C. 

If you see a square:
respond with the letter  M  only if the triangle is in the middle. 

DO NOT press anything if the triangle is positioned on the right.",1,0,80,65,1,79,0.012
,,,,,,,,,,circle.jpg,0,0,c,027,2019-06-09_19h32.04.761,Primed GoNogo,3.0.4,60,,,,,,,,,,,,,,,c,0.449,c,1,1,0,2,0,1,1,conditionsMaster1.csv,1,0,3,2,1,2,conditionsFile1.csv,1,0,1,0,1,0,conditions1.csv,"If you see a circle: 
always respond with the letter  C. 

If you see a square:
respond with the letter  M  only if the triangle is in the middle. 

DO NOT press anything if the triangle is positioned on the right.",1,0,80,38,1,79,0.047
,,,,,,,,,,square.jpg,0,0,m,027,2019-06-09_19h32.04.761,Primed GoNogo,3.0.4,60,,,,,,,,,,,,,,,m,0.262,m,1,1,0,2,0,1,1,conditionsMaster1.csv,1,0,3,2,1,2,conditionsFile1.csv,1,0,1,0,1,0,conditions1.csv,"If you see a circle: 
always respond with the letter  C. 

If you see a square:
respond with the letter  M  only if the triangle is in the middle. 

DO NOT press anything if the triangle is positioned on the right.",1,0,80,50,1,79,0.163
,,,,,,,,,,circle.jpg,0,0,c,027,2019-06-09_19h32.04.761,Primed GoNogo,3.0.4,60,,,,,,,,,,,,,,,c,0.412,c,1,1,0,2,0,1,1,conditionsMaster1.csv,1,0,3,2,1,2,conditionsFile1.csv,1,0,1,0,1,0,conditions1.csv,"If you see a circle: 
always respond with the letter  C. 

If you see a square:
respond with the letter  M  only if the triangle is in the middle. 

DO NOT press anything if the triangle is positioned on the right.",1,0,80,53,1,79,0.134
,,,,,,,,,,square.jpg,0,0,m,027,2019-06-09_19h32.04.761,Primed GoNogo,3.0.4,60,,,,,,,,,,,,,,,m,0.329,m,1,1,0,2,0,1,1,conditionsMaster1.csv,1,0,3,2,1,2,conditionsFile1.csv,1,0,1,0,1,0,conditions1.csv,"If you see a circle: 
always respond with the letter  C. 

If you see a square:
respond with the letter  M  only if the triangle is in the middle. 

DO NOT press anything if the triangle is positioned on the right.",1,0,80,9,1,79,0.048
,,,,,,,,,,circle.jpg,-0.1,0,c,027,2019-06-09_19h32.04.761,Primed GoNogo,3.0.4,60,,,,,,,,,,,,,,,c,0.546,c,1,1,0,2,0,1,1,conditionsMaster1.csv,1,0,3,2,1,2,conditionsFile1.csv,1,0,1,0,1,0,conditions1.csv,"If you see a circle: 
always respond with the letter  C. 

If you see a square:
respond with the letter  M  only if the triangle is in the middle. 

DO NOT press anything if the triangle is positioned on the right.",1,0,80,55,1,79,0.049
,,,,,,,,,,square.jpg,0,0,m,027,2019-06-09_19h32.04.761,Primed GoNogo,3.0.4,60,,,,,,,,,,,,,,,m,0.449,m,1,1,0,2,0,1,1,conditionsMaster1.csv,1,0,3,2,1,2,conditionsFile1.csv,1,0,1,0,1,0,conditions1.csv,"If you see a circle: 
always respond with the letter  C. 

If you see a square:
respond with the letter  M  only if the triangle is in the middle. 

DO NOT press anything if the triangle is positioned on the right.",1,0,80,42,1,79,0.028
,,,,,,,,,,circle.jpg,0,0,c,027,2019-06-09_19h32.04.761,Primed GoNogo,3.0.4,60,,,,,,,,,,,,,,,c,0.513,c,1,1,0,2,0,1,1,conditionsMaster1.csv,1,0,3,2,1,2,conditionsFile1.csv,1,0,1,0,1,0,conditions1.csv,"If you see a circle: 
always respond with the letter  C. 

If you see a square:
respond with the letter  M  only if the triangle is in the middle. 

DO NOT press anything if the triangle is positioned on the right.",1,0,80,4,1,79,0.079
,,,,,,,,,,square.jpg,0.1,0,none,027,2019-06-09_19h32.04.761,Primed GoNogo,3.0.4,60,,,,,,,,,,,,,,,m,0.264,m,0,1,0,2,0,1,1,conditionsMaster1.csv,1,0,3,2,1,2,conditionsFile1.csv,1,0,1,0,1,0,conditions1.csv,"If you see a circle: 
always respond with the letter  C. 

If you see a square:
respond with the letter  M  only if the triangle is in the middle. 

DO NOT press anything if the triangle is positioned on the right.",1,0,80,75,1,79,0.146
,,,,,,,,,,circle.jpg,0,0,c,027,2019-06-09_19h32.04.761,Primed GoNogo,3.0.4,60,,,,,,,,,,,,,,,c,0.277,c,1,1,0,2,0,1,1,conditionsMaster1.csv,1,0,3,2,1,2,conditionsFile1.csv,1,0,1,0,1,0,conditions1.csv,"If you see a circle: 
always respond with the letter  C. 

If you see a square:
respond with the letter  M  only if the triangle is in the middle. 

DO NOT press anything if the triangle is positioned on the right.",1,0,80,5,1,79,0.048
,,,,,,,,,,square.jpg,0,0,m,027,2019-06-09_19h32.04.761,Primed GoNogo,3.0.4,60,,,,,,,,,,,,,,,c,0.876,m,1,1,0,2,0,1,1,conditionsMaster1.csv,1,0,3,2,1,2,conditionsFile1.csv,1,0,1,0,1,0,conditions1.csv,"If you see a circle: 
always respond with the letter  C. 

If you see a square:
respond with the letter  M  only if the triangle is in the middle. 

DO NOT press anything if the triangle is positioned on the right.",1,0,80,16,1,79,0.132
,,,,,,,,,,square.jpg,0,0,m,027,2019-06-09_19h32.04.761,Primed GoNogo,3.0.4,60,,,,,,,,,,,,,,,m,0.628,m,1,1,0,2,0,1,1,conditionsMaster1.csv,1,0,3,2,1,2,conditionsFile1.csv,1,0,1,0,1,0,conditions1.csv,"If you see a circle: 
always respond with the letter  C. 

If you see a square:
respond with the letter  M  only if the triangle is in the middle. 

DO NOT press anything if the triangle is positioned on the right.",1,0,80,64,1,79,0.143
,,,,,,,,,,square.jpg,0,0,m,027,2019-06-09_19h32.04.761,Primed GoNogo,3.0.4,60,,,,,,,,,,,,,,,c,0.26,m,1,1,0,2,0,1,1,conditionsMaster1.csv,1,0,3,2,1,2,conditionsFile1.csv,1,0,1,0,1,0,conditions1.csv,"If you see a circle: 
always respond with the letter  C. 

If you see a square:
respond with the letter  M  only if the triangle is in the middle. 

DO NOT press anything if the triangle is positioned on the right.",1,0,80,24,1,79,0.03
,,,,,,,,,,circle.jpg,0,0,c,027,2019-06-09_19h32.04.761,Primed GoNogo,3.0.4,60,,,,,,,,,,,,,,,c,0.615,c,1,1,0,2,0,1,1,conditionsMaster1.csv,1,0,3,2,1,2,conditionsFile1.csv,1,0,1,0,1,0,conditions1.csv,"If you see a circle: 
always respond with the letter  C. 

If you see a square:
respond with the letter  M  only if the triangle is in the middle. 

DO NOT press anything if the triangle is positioned on the right.",1,0,80,77,1,79,0.013
,,,,,,,,,,square.jpg,0,0,m,027,2019-06-09_19h32.04.761,Primed GoNogo,3.0.4,60,,,,,,,,,,,,,,,m,0.563,m,1,1,0,2,0,1,1,conditionsMaster1.csv,1,0,3,2,1,2,conditionsFile1.csv,1,0,1,0,1,0,conditions1.csv,"If you see a circle: 
always respond with the letter  C. 

If you see a square:
respond with the letter  M  only if the triangle is in the middle. 

DO NOT press anything if the triangle is positioned on the right.",1,0,80,8,1,79,0.08
,,,,,,,,,,square.jpg,0,0,m,027,2019-06-09_19h32.04.761,Primed GoNogo,3.0.4,60,,,,,,,,,,,,,,,c,0.548,m,1,1,0,2,0,1,1,conditionsMaster1.csv,1,0,3,2,1,2,conditionsFile1.csv,1,0,1,0,1,0,conditions1.csv,"If you see a circle: 
always respond with the letter  C. 

If you see a square:
respond with the letter  M  only if the triangle is in the middle. 

DO NOT press anything if the triangle is positioned on the right.",1,0,80,49,1,79,0.096
,,,,,,,,,,circle.jpg,-0.1,0,c,027,2019-06-09_19h32.04.761,Primed GoNogo,3.0.4,60,,,,,,,,,,,,,,,c,0.064,c,1,1,0,2,0,1,1,conditionsMaster1.csv,1,0,3,2,1,2,conditionsFile1.csv,1,0,1,0,1,0,conditions1.csv,"If you see a circle: 
always respond with the letter  C. 

If you see a square:
respond with the letter  M  only if the triangle is in the middle. 

DO NOT press anything if the triangle is positioned on the right.",1,0,80,31,1,79,0.028
,,,,,,,,,,square.jpg,0,0,m,027,2019-06-09_19h32.04.761,Primed GoNogo,3.0.4,60,,,,,,,,,,,,,,,c,0.212,,0,1,0,2,0,1,1,conditionsMaster1.csv,1,0,3,2,1,2,conditionsFile1.csv,1,0,1,0,1,0,conditions1.csv,"If you see a circle: 
always respond with the letter  C. 

If you see a square:
respond with the letter  M  only if the triangle is in the middle. 

DO NOT press anything if the triangle is positioned on the right.",1,0,80,48,1,79,
,,,,,,,,,,circle.jpg,0,0,c,027,2019-06-09_19h32.04.761,Primed GoNogo,3.0.4,60,,,,,,,,,,,,,,,c,0.564,c,1,1,0,2,0,1,1,conditionsMaster1.csv,1,0,3,2,1,2,conditionsFile1.csv,1,0,1,0,1,0,conditions1.csv,"If you see a circle: 
always respond with the letter  C. 

If you see a square:
respond with the letter  M  only if the triangle is in the middle. 

DO NOT press anything if the triangle is positioned on the right.",1,0,80,70,1,79,0.099
,,,,,,,,,,circle.jpg,0,0,c,027,2019-06-09_19h32.04.761,Primed GoNogo,3.0.4,60,,,,,,,,,,,,,,,c,0.598,c,1,1,0,2,0,1,1,conditionsMaster1.csv,1,0,3,2,1,2,conditionsFile1.csv,1,0,1,0,1,0,conditions1.csv,"If you see a circle: 
always respond with the letter  C. 

If you see a square:
respond with the letter  M  only if the triangle is in the middle. 

DO NOT press anything if the triangle is positioned on the right.",1,0,80,44,1,79,0.043
,,,,,,,,,,square.jpg,0,0,m,027,2019-06-09_19h32.04.761,Primed GoNogo,3.0.4,60,,,,,,,,,,,,,,,m,0.349,m,1,1,0,2,0,1,1,conditionsMaster1.csv,1,0,3,2,1,2,conditionsFile1.csv,1,0,1,0,1,0,conditions1.csv,"If you see a circle: 
always respond with the letter  C. 

If you see a square:
respond with the letter  M  only if the triangle is in the middle. 

DO NOT press anything if the triangle is positioned on the right.",1,0,80,41,1,79,0.164
,,,,,,,,,,square.jpg,0,0,m,027,2019-06-09_19h32.04.761,Primed GoNogo,3.0.4,60,,,,,,,,,,,,,,,m,0.462,m,1,1,0,2,0,1,1,conditionsMaster1.csv,1,0,3,2,1,2,conditionsFile1.csv,1,0,1,0,1,0,conditions1.csv,"If you see a circle: 
always respond with the letter  C. 

If you see a square:
respond with the letter  M  only if the triangle is in the middle. 

DO NOT press anything if the triangle is positioned on the right.",1,0,80,18,1,79,0.142
,,,,,,,,,,square.jpg,0.1,0,none,027,2019-06-09_19h32.04.761,Primed GoNogo,3.0.4,60,,,,,,,,,,,,,,,m,0.612,m,0,1,0,2,0,1,1,conditionsMaster1.csv,1,0,3,2,1,2,conditionsFile1.csv,1,0,1,0,1,0,conditions1.csv,"If you see a circle: 
always respond with the letter  C. 

If you see a square:
respond with the letter  M  only if the triangle is in the middle. 

DO NOT press anything if the triangle is positioned on the right.",1,0,80,11,1,79,0.095
,,,,,,,,,,circle.jpg,0,0,c,027,2019-06-09_19h32.04.761,Primed GoNogo,3.0.4,60,,,,,,,,,,,,,,,c,0.715,c,1,1,0,2,0,1,1,conditionsMaster1.csv,1,0,3,2,1,2,conditionsFile1.csv,1,0,1,0,1,0,conditions1.csv,"If you see a circle: 
always respond with the letter  C. 

If you see a square:
respond with the letter  M  only if the triangle is in the middle. 

DO NOT press anything if the triangle is positioned on the right.",1,0,80,62,1,79,0.082
,,,,,,,,,,circle.jpg,0,0,c,027,2019-06-09_19h32.04.761,Primed GoNogo,3.0.4,60,,,,,,,,,,,,,,,c,0.395,,0,1,0,2,0,1,1,conditionsMaster1.csv,1,0,3,2,1,2,conditionsFile1.csv,1,0,1,0,1,0,conditions1.csv,"If you see a circle: 
always respond with the letter  C. 

If you see a square:
respond with the letter  M  only if the triangle is in the middle. 

DO NOT press anything if the triangle is positioned on the right.",1,0,80,30,1,79,
,,,,,,,,,,square.jpg,0,0,m,027,2019-06-09_19h32.04.761,Primed GoNogo,3.0.4,60,,,,,,,,,,,,,,,c,0.377,m,1,1,0,2,0,1,1,conditionsMaster1.csv,1,0,3,2,1,2,conditionsFile1.csv,1,0,1,0,1,0,conditions1.csv,"If you see a circle: 
always respond with the letter  C. 

If you see a square:
respond with the letter  M  only if the triangle is in the middle. 

DO NOT press anything if the triangle is positioned on the right.",1,0,80,2,1,79,0.06
,,,,,,,,,,circle.jpg,0,0,c,027,2019-06-09_19h32.04.761,Primed GoNogo,3.0.4,60,,,,,,,,,,,,,,,c,0.363,c,1,1,0,2,0,1,1,conditionsMaster1.csv,1,0,3,2,1,2,conditionsFile1.csv,1,0,1,0,1,0,conditions1.csv,"If you see a circle: 
always respond with the letter  C. 

If you see a square:
respond with the letter  M  only if the triangle is in the middle. 

DO NOT press anything if the triangle is positioned on the right.",1,0,80,20,1,79,0.195
,,,,,,,,,,circle.jpg,0,0,c,027,2019-06-09_19h32.04.761,Primed GoNogo,3.0.4,60,,,,,,,,,,,,,,,m,0.379,m,0,1,0,2,0,1,1,conditionsMaster1.csv,1,0,3,2,1,2,conditionsFile1.csv,1,0,1,0,1,0,conditions1.csv,"If you see a circle: 
always respond with the letter  C. 

If you see a square:
respond with the letter  M  only if the triangle is in the middle. 

DO NOT press anything if the triangle is positioned on the right.",1,0,80,28,1,79,0.096
,,,,,,,,,,square.jpg,0.1,0,none,027,2019-06-09_19h32.04.761,Primed GoNogo,3.0.4,60,,,,,,,,,,,,,,,m,0.28,m,0,1,0,2,0,1,1,conditionsMaster1.csv,1,0,3,2,1,2,conditionsFile1.csv,1,0,1,0,1,0,conditions1.csv,"If you see a circle: 
always respond with the letter  C. 

If you see a square:
respond with the letter  M  only if the triangle is in the middle. 

DO NOT press anything if the triangle is positioned on the right.",1,0,80,35,1,79,0.129
,,,,,,,,,,square.jpg,0,0,m,027,2019-06-09_19h32.04.761,Primed GoNogo,3.0.4,60,,,,,,,,,,,,,,,m,0.563,m,1,1,0,2,0,1,1,conditionsMaster1.csv,1,0,3,2,1,2,conditionsFile1.csv,1,0,1,0,1,0,conditions1.csv,"If you see a circle: 
always respond with the letter  C. 

If you see a square:
respond with the letter  M  only if the triangle is in the middle. 

DO NOT press anything if the triangle is positioned on the right.",1,0,80,74,1,79,0.063
,,,,,,,,,,circle.jpg,0,0,c,027,2019-06-09_19h32.04.761,Primed GoNogo,3.0.4,60,,,,,,,,,,,,,,,c,0.563,c,1,1,0,2,0,1,1,conditionsMaster1.csv,1,0,3,2,1,2,conditionsFile1.csv,1,0,1,0,1,0,conditions1.csv,"If you see a circle: 
always respond with the letter  C. 

If you see a square:
respond with the letter  M  only if the triangle is in the middle. 

DO NOT press anything if the triangle is positioned on the right.",1,0,80,14,1,79,0.144
,,,,,,,,,,circle.jpg,0,0,c,027,2019-06-09_19h32.04.761,Primed GoNogo,3.0.4,60,,,,,,,,,,,,,,,,,,0,1,0,2,0,1,1,conditionsMaster1.csv,1,0,3,2,1,2,conditionsFile1.csv,1,0,1,0,1,0,conditions1.csv,"If you see a circle: 
always respond with the letter  C. 

If you see a square:
respond with the letter  M  only if the triangle is in the middle. 

DO NOT press anything if the triangle is positioned on the right.",1,0,80,29,1,79,
,,,,,,,,,,circle.jpg,0,0,c,027,2019-06-09_19h32.04.761,Primed GoNogo,3.0.4,60,,,,,,,,,,,,,,,m,0.295,,0,1,0,2,0,1,1,conditionsMaster1.csv,1,0,3,2,1,2,conditionsFile1.csv,1,0,1,0,1,0,conditions1.csv,"If you see a circle: 
always respond with the letter  C. 

If you see a square:
respond with the letter  M  only if the triangle is in the middle. 

DO NOT press anything if the triangle is positioned on the right.",1,0,80,37,1,79,
,,,,,,,,,,square.jpg,0.1,0,none,027,2019-06-09_19h32.04.761,Primed GoNogo,3.0.4,60,,,,,,,,,,,,,,,,,,1,1,0,2,0,1,1,conditionsMaster1.csv,1,0,3,2,1,2,conditionsFile1.csv,1,0,1,0,1,0,conditions1.csv,"If you see a circle: 
always respond with the letter  C. 

If you see a square:
respond with the letter  M  only if the triangle is in the middle. 

DO NOT press anything if the triangle is positioned on the right.",1,0,80,59,1,79,
,,,,,,,,,,circle.jpg,0,0,c,027,2019-06-09_19h32.04.761,Primed GoNogo,3.0.4,60,,,,,,,,,,,,,,,c,0.278,c,1,1,0,2,0,1,1,conditionsMaster1.csv,1,0,3,2,1,2,conditionsFile1.csv,1,0,1,0,1,0,conditions1.csv,"If you see a circle: 
always respond with the letter  C. 

If you see a square:
respond with the letter  M  only if the triangle is in the middle. 

DO NOT press anything if the triangle is positioned on the right.",1,0,80,52,1,79,0.16
,,,,,,,,,,square.jpg,0,0,m,027,2019-06-09_19h32.04.761,Primed GoNogo,3.0.4,60,,,,,,,,,,,,,,,m,0.711,m,1,1,0,2,0,1,1,conditionsMaster1.csv,1,0,3,2,1,2,conditionsFile1.csv,1,0,1,0,1,0,conditions1.csv,"If you see a circle: 
always respond with the letter  C. 

If you see a square:
respond with the letter  M  only if the triangle is in the middle. 

DO NOT press anything if the triangle is positioned on the right.",1,0,80,1,1,79,0.044
,,,,,,,,,,circle.jpg,0,0,c,027,2019-06-09_19h32.04.761,Primed GoNogo,3.0.4,60,,,,,,,,,,,,,,,c,0.748,c,1,1,0,2,0,1,1,conditionsMaster1.csv,1,0,3,2,1,2,conditionsFile1.csv,1,0,1,0,1,0,conditions1.csv,"If you see a circle: 
always respond with the letter  C. 

If you see a square:
respond with the letter  M  only if the triangle is in the middle. 

DO NOT press anything if the triangle is positioned on the right.",1,0,80,13,1,79,0.13
,,,,,,,,,,circle.jpg,0,0,c,027,2019-06-09_19h32.04.761,Primed GoNogo,3.0.4,60,,,,,,,,,,,,,,,c,0.696,c,1,1,0,2,0,1,1,conditionsMaster1.csv,1,0,3,2,1,2,conditionsFile1.csv,1,0,1,0,1,0,conditions1.csv,"If you see a circle: 
always respond with the letter  C. 

If you see a square:
respond with the letter  M  only if the triangle is in the middle. 

DO NOT press anything if the triangle is positioned on the right.",1,0,80,36,1,79,0.077
,,,,,,,,,,square.jpg,0,0,m,027,2019-06-09_19h32.04.761,Primed GoNogo,3.0.4,60,,,,,,,,,,,,,,,c,0.532,m,1,1,0,2,0,1,1,conditionsMaster1.csv,1,0,3,2,1,2,conditionsFile1.csv,1,0,1,0,1,0,conditions1.csv,"If you see a circle: 
always respond with the letter  C. 

If you see a square:
respond with the letter  M  only if the triangle is in the middle. 

DO NOT press anything if the triangle is positioned on the right.",1,0,80,34,1,79,0.148
,,,,,,,,,,square.jpg,0,0,m,027,2019-06-09_19h32.04.761,Primed GoNogo,3.0.4,60,,,,,,,,,,,,,,,m,0.681,m,1,1,0,2,0,1,1,conditionsMaster1.csv,1,0,3,2,1,2,conditionsFile1.csv,1,0,1,0,1,0,conditions1.csv,"If you see a circle: 
always respond with the letter  C. 

If you see a square:
respond with the letter  M  only if the triangle is in the middle. 

DO NOT press anything if the triangle is positioned on the right.",1,0,80,17,1,79,0.013
,,,,,,,,,,circle.jpg,-0.1,0,c,027,2019-06-09_19h32.04.761,Primed GoNogo,3.0.4,60,,,,,,,,,,,,,,,c,0.629,c,1,1,0,2,0,1,1,conditionsMaster1.csv,1,0,3,2,1,2,conditionsFile1.csv,1,0,1,0,1,0,conditions1.csv,"If you see a circle: 
always respond with the letter  C. 

If you see a square:
respond with the letter  M  only if the triangle is in the middle. 

DO NOT press anything if the triangle is positioned on the right.",1,0,80,15,1,79,0.06
,,,,,,,,,,square.jpg,0,0,m,027,2019-06-09_19h32.04.761,Primed GoNogo,3.0.4,60,,,,,,,,,,,,,,,m,0.512,m,1,1,0,2,0,1,1,conditionsMaster1.csv,1,0,3,2,1,2,conditionsFile1.csv,1,0,1,0,1,0,conditions1.csv,"If you see a circle: 
always respond with the letter  C. 

If you see a square:
respond with the letter  M  only if the triangle is in the middle. 

