instr_resp.keys,instr_resp.rt,prac_resp.keys,prac_resp.corr,prac_1.thisRepN,prac_1.thisTrialN,prac_1.thisN,prac_1.thisIndex,prac_1.ran,prac_1.order,imageFile,posX,posY,corrAns,*Participant ID ,date,expName,psychopyVersion,frameRate,prac_resp.rt,instr_resp2.keys,instr_resp2.rt,prac_resp2.keys,prac_resp2.corr,prac_2.thisRepN,prac_2.thisTrialN,prac_2.thisN,prac_2.thisIndex,prac_2.ran,prac_2.order,prac_resp2.rt,pover_resp.keys,pover_resp.rt,earlyresp.keys,earlyresp.rt,resp.keys,resp.corr,Groups.thisRepN,Groups.thisTrialN,Groups.thisN,Groups.thisIndex,Groups.ran,Groups.order,countgroups,masterBlock.thisRepN,masterBlock.thisTrialN,masterBlock.thisN,masterBlock.thisIndex,masterBlock.ran,masterBlock.order,masterFile,Block1.thisRepN,Block1.thisTrialN,Block1.thisN,Block1.thisIndex,Block1.ran,Block1.order,condFile,instr,StopSide.thisRepN,StopSide.thisTrialN,StopSide.thisN,StopSide.thisIndex,StopSide.ran,StopSide.order,resp.rt
return,9.114,,0,1,0,8,0,1,7,square.jpg,0,0,m,024,2019-06-09_17h27.54.339,Primed GoNogo,3.0.4,60,,,,,,,,,,,,,,,,,,,,,,,,,,,,,,,,,,,,,,,,,,,,,,,
,,,1,1,0,8,3,1,7,square.jpg,0.1,0,none,024,2019-06-09_17h27.54.339,Primed GoNogo,3.0.4,60,,,,,,,,,,,,,,,,,,,,,,,,,,,,,,,,,,,,,,,,,,,,,,,
,,,0,1,0,8,6,1,7,circle.jpg,0,0,c,024,2019-06-09_17h27.54.339,Primed GoNogo,3.0.4,60,,,,,,,,,,,,,,,,,,,,,,,,,,,,,,,,,,,,,,,,,,,,,,,
,,,0,1,0,8,2,1,7,square.jpg,0,0,m,024,2019-06-09_17h27.54.339,Primed GoNogo,3.0.4,60,,,,,,,,,,,,,,,,,,,,,,,,,,,,,,,,,,,,,,,,,,,,,,,
,,,0,1,0,8,1,1,7,square.jpg,0,0,m,024,2019-06-09_17h27.54.339,Primed GoNogo,3.0.4,60,,,,,,,,,,,,,,,,,,,,,,,,,,,,,,,,,,,,,,,,,,,,,,,
,,c,1,1,0,8,7,1,7,circle.jpg,-0.1,0,c,024,2019-06-09_17h27.54.339,Primed GoNogo,3.0.4,60,0.024,,,,,,,,,,,,,,,,,,,,,,,,,,,,,,,,,,,,,,,,,,,,,,
,,,0,1,0,8,5,1,7,circle.jpg,0,0,c,024,2019-06-09_17h27.54.339,Primed GoNogo,3.0.4,60,,,,,,,,,,,,,,,,,,,,,,,,,,,,,,,,,,,,,,,,,,,,,,,
,,,0,1,0,8,4,1,7,circle.jpg,0,0,c,024,2019-06-09_17h27.54.339,Primed GoNogo,3.0.4,60,,,,,,,,,,,,,,,,,,,,,,,,,,,,,,,,,,,,,,,,,,,,,,,
,,,,,,,,,,square.jpg,0,0,m,024,2019-06-09_17h27.54.339,Primed GoNogo,3.0.4,60,,space,22.961,,0,1,0,8,1,1,7,,,,,,,,,,,,,,,,,,,,,,,,,,,,,,,,,,,,
,,,,,,,,,,circle.jpg,0,0,c,024,2019-06-09_17h27.54.339,Primed GoNogo,3.0.4,60,,,,,0,1,0,8,6,1,7,,,,,,,,,,,,,,,,,,,,,,,,,,,,,,,,,,,,
,,,,,,,,,,circle.jpg,-0.1,0,none,024,2019-06-09_17h27.54.339,Primed GoNogo,3.0.4,60,,,,,1,1,0,8,7,1,7,,,,,,,,,,,,,,,,,,,,,,,,,,,,,,,,,,,,
,,,,,,,,,,circle.jpg,0,0,c,024,2019-06-09_17h27.54.339,Primed GoNogo,3.0.4,60,,,,,0,1,0,8,5,1,7,,,,,,,,,,,,,,,,,,,,,,,,,,,,,,,,,,,,
,,,,,,,,,,square.jpg,0.1,0,m,024,2019-06-09_17h27.54.339,Primed GoNogo,3.0.4,60,,,,,0,1,0,8,3,1,7,,,,,,,,,,,,,,,,,,,,,,,,,,,,,,,,,,,,
,,,,,,,,,,square.jpg,0,0,m,024,2019-06-09_17h27.54.339,Primed GoNogo,3.0.4,60,,,,,0,1,0,8,2,1,7,,,,,,,,,,,,,,,,,,,,,,,,,,,,,,,,,,,,
,,,,,,,,,,circle.jpg,0,0,c,024,2019-06-09_17h27.54.339,Primed GoNogo,3.0.4,60,,,,c,1,1,0,8,4,1,7,0.245,,,,,,,,,,,,,,,,,,,,,,,,,,,,,,,,,,,
,,,,,,,,,,square.jpg,0,0,m,024,2019-06-09_17h27.54.339,Primed GoNogo,3.0.4,60,,,,,0,1,0,8,0,1,7,,,,,,,,,,,,,,,,,,,,,,,,,,,,,,,,,,,,
,,,,,,,,,,circle.jpg,0,0,c,024,2019-06-09_17h27.54.339,Primed GoNogo,3.0.4,60,,,,,,,,,,,,,space,6.673,c,0.41,,0,1,0,2,1,1,1,conditionsMaster2.csv,1,0,3,0,1,2,conditionsFile2.csv,1,0,1,0,1,0,conditions2.csv,"If you see a circle: 
respond with the letter  C   only if the triangle is in the middle. 

DO NOT press anything if the triangle is positioned on the left.
 

If you see a square:
Always respond with the letter  M   
",1,0,80,60,1,79,
,,,,,,,,,,circle.jpg,0,0,c,024,2019-06-09_17h27.54.339,Primed GoNogo,3.0.4,60,,,,,,,,,,,,,,,,,c,1,1,0,2,1,1,1,conditionsMaster2.csv,1,0,3,0,1,2,conditionsFile2.csv,1,0,1,0,1,0,conditions2.csv,"If you see a circle: 
respond with the letter  C   only if the triangle is in the middle. 

DO NOT press anything if the triangle is positioned on the left.
 

If you see a square:
Always respond with the letter  M   
",1,0,80,70,1,79,0.21
,,,,,,,,,,circle.jpg,0,0,c,024,2019-06-09_17h27.54.339,Primed GoNogo,3.0.4,60,,,,,,,,,,,,,,,,,c,1,1,0,2,1,1,1,conditionsMaster2.csv,1,0,3,0,1,2,conditionsFile2.csv,1,0,1,0,1,0,conditions2.csv,"If you see a circle: 
respond with the letter  C   only if the triangle is in the middle. 

DO NOT press anything if the triangle is positioned on the left.
 

If you see a square:
Always respond with the letter  M   
",1,0,80,30,1,79,0.108
,,,,,,,,,,circle.jpg,-0.1,0,none,024,2019-06-09_17h27.54.339,Primed GoNogo,3.0.4,60,,,,,,,,,,,,,,,,,,1,1,0,2,1,1,1,conditionsMaster2.csv,1,0,3,0,1,2,conditionsFile2.csv,1,0,1,0,1,0,conditions2.csv,"If you see a circle: 
respond with the letter  C   only if the triangle is in the middle. 

DO NOT press anything if the triangle is positioned on the left.
 

If you see a square:
Always respond with the letter  M   
",1,0,80,31,1,79,
,,,,,,,,,,circle.jpg,0,0,c,024,2019-06-09_17h27.54.339,Primed GoNogo,3.0.4,60,,,,,,,,,,,,,,,,,,0,1,0,2,1,1,1,conditionsMaster2.csv,1,0,3,0,1,2,conditionsFile2.csv,1,0,1,0,1,0,conditions2.csv,"If you see a circle: 
respond with the letter  C   only if the triangle is in the middle. 

DO NOT press anything if the triangle is positioned on the left.
 

If you see a square:
Always respond with the letter  M   
",1,0,80,38,1,79,
,,,,,,,,,,circle.jpg,0,0,c,024,2019-06-09_17h27.54.339,Primed GoNogo,3.0.4,60,,,,,,,,,,,,,,,,,c,1,1,0,2,1,1,1,conditionsMaster2.csv,1,0,3,0,1,2,conditionsFile2.csv,1,0,1,0,1,0,conditions2.csv,"If you see a circle: 
respond with the letter  C   only if the triangle is in the middle. 

DO NOT press anything if the triangle is positioned on the left.
 

If you see a square:
Always respond with the letter  M   
",1,0,80,37,1,79,0.33
,,,,,,,,,,circle.jpg,0,0,c,024,2019-06-09_17h27.54.339,Primed GoNogo,3.0.4,60,,,,,,,,,,,,,,,,,c,1,1,0,2,1,1,1,conditionsMaster2.csv,1,0,3,0,1,2,conditionsFile2.csv,1,0,1,0,1,0,conditions2.csv,"If you see a circle: 
respond with the letter  C   only if the triangle is in the middle. 

DO NOT press anything if the triangle is positioned on the left.
 

If you see a square:
Always respond with the letter  M   
",1,0,80,28,1,79,0.213
,,,,,,,,,,square.jpg,0,0,m,024,2019-06-09_17h27.54.339,Primed GoNogo,3.0.4,60,,,,,,,,,,,,,,,,,m,1,1,0,2,1,1,1,conditionsMaster2.csv,1,0,3,0,1,2,conditionsFile2.csv,1,0,1,0,1,0,conditions2.csv,"If you see a circle: 
respond with the letter  C   only if the triangle is in the middle. 

DO NOT press anything if the triangle is positioned on the left.
 

If you see a square:
Always respond with the letter  M   
",1,0,80,72,1,79,0.227
,,,,,,,,,,circle.jpg,-0.1,0,none,024,2019-06-09_17h27.54.339,Primed GoNogo,3.0.4,60,,,,,,,,,,,,,,,,,c,0,1,0,2,1,1,1,conditionsMaster2.csv,1,0,3,0,1,2,conditionsFile2.csv,1,0,1,0,1,0,conditions2.csv,"If you see a circle: 
respond with the letter  C   only if the triangle is in the middle. 

DO NOT press anything if the triangle is positioned on the left.
 

If you see a square:
Always respond with the letter  M   
",1,0,80,7,1,79,0.261
,,,,,,,,,,square.jpg,0.1,0,m,024,2019-06-09_17h27.54.339,Primed GoNogo,3.0.4,60,,,,,,,,,,,,,,,,,m,1,1,0,2,1,1,1,conditionsMaster2.csv,1,0,3,0,1,2,conditionsFile2.csv,1,0,1,0,1,0,conditions2.csv,"If you see a circle: 
respond with the letter  C   only if the triangle is in the middle. 

DO NOT press anything if the triangle is positioned on the left.
 

If you see a square:
Always respond with the letter  M   
",1,0,80,3,1,79,0.196
,,,,,,,,,,square.jpg,0.1,0,m,024,2019-06-09_17h27.54.339,Primed GoNogo,3.0.4,60,,,,,,,,,,,,,,,,,m,1,1,0,2,1,1,1,conditionsMaster2.csv,1,0,3,0,1,2,conditionsFile2.csv,1,0,1,0,1,0,conditions2.csv,"If you see a circle: 
respond with the letter  C   only if the triangle is in the middle. 

DO NOT press anything if the triangle is positioned on the left.
 

If you see a square:
Always respond with the letter  M   
",1,0,80,11,1,79,0.217
,,,,,,,,,,circle.jpg,-0.1,0,none,024,2019-06-09_17h27.54.339,Primed GoNogo,3.0.4,60,,,,,,,,,,,,,,,,,,1,1,0,2,1,1,1,conditionsMaster2.csv,1,0,3,0,1,2,conditionsFile2.csv,1,0,1,0,1,0,conditions2.csv,"If you see a circle: 
respond with the letter  C   only if the triangle is in the middle. 

DO NOT press anything if the triangle is positioned on the left.
 

If you see a square:
Always respond with the letter  M   
",1,0,80,79,1,79,
,,,,,,,,,,square.jpg,0,0,m,024,2019-06-09_17h27.54.339,Primed GoNogo,3.0.4,60,,,,,,,,,,,,,,,,,m,1,1,0,2,1,1,1,conditionsMaster2.csv,1,0,3,0,1,2,conditionsFile2.csv,1,0,1,0,1,0,conditions2.csv,"If you see a circle: 
respond with the letter  C   only if the triangle is in the middle. 

DO NOT press anything if the triangle is positioned on the left.
 

If you see a square:
Always respond with the letter  M   
",1,0,80,49,1,79,0.324
,,,,,,,,,,circle.jpg,0,0,c,024,2019-06-09_17h27.54.339,Primed GoNogo,3.0.4,60,,,,,,,,,,,,,,,,,c,1,1,0,2,1,1,1,conditionsMaster2.csv,1,0,3,0,1,2,conditionsFile2.csv,1,0,1,0,1,0,conditions2.csv,"If you see a circle: 
respond with the letter  C   only if the triangle is in the middle. 

DO NOT press anything if the triangle is positioned on the left.
 

If you see a square:
Always respond with the letter  M   
",1,0,80,20,1,79,0.298
,,,,,,,,,,square.jpg,0.1,0,m,024,2019-06-09_17h27.54.339,Primed GoNogo,3.0.4,60,,,,,,,,,,,,,,,,,m,1,1,0,2,1,1,1,conditionsMaster2.csv,1,0,3,0,1,2,conditionsFile2.csv,1,0,1,0,1,0,conditions2.csv,"If you see a circle: 
respond with the letter  C   only if the triangle is in the middle. 

DO NOT press anything if the triangle is positioned on the left.
 

If you see a square:
Always respond with the letter  M   
",1,0,80,59,1,79,0.246
,,,,,,,,,,square.jpg,0.1,0,m,024,2019-06-09_17h27.54.339,Primed GoNogo,3.0.4,60,,,,,,,,,,,,,,,,,m,1,1,0,2,1,1,1,conditionsMaster2.csv,1,0,3,0,1,2,conditionsFile2.csv,1,0,1,0,1,0,conditions2.csv,"If you see a circle: 
respond with the letter  C   only if the triangle is in the middle. 

DO NOT press anything if the triangle is positioned on the left.
 

If you see a square:
Always respond with the letter  M   
",1,0,80,35,1,79,0.515
,,,,,,,,,,square.jpg,0,0,m,024,2019-06-09_17h27.54.339,Primed GoNogo,3.0.4,60,,,,,,,,,,,,,,,,,,0,1,0,2,1,1,1,conditionsMaster2.csv,1,0,3,0,1,2,conditionsFile2.csv,1,0,1,0,1,0,conditions2.csv,"If you see a circle: 
respond with the letter  C   only if the triangle is in the middle. 

DO NOT press anything if the triangle is positioned on the left.
 

If you see a square:
Always respond with the letter  M   
",1,0,80,57,1,79,
,,,,,,,,,,square.jpg,0,0,m,024,2019-06-09_17h27.54.339,Primed GoNogo,3.0.4,60,,,,,,,,,,,,,,,,,m,1,1,0,2,1,1,1,conditionsMaster2.csv,1,0,3,0,1,2,conditionsFile2.csv,1,0,1,0,1,0,conditions2.csv,"If you see a circle: 
respond with the letter  C   only if the triangle is in the middle. 

DO NOT press anything if the triangle is positioned on the left.
 

If you see a square:
Always respond with the letter  M   
",1,0,80,18,1,79,0.41
,,,,,,,,,,circle.jpg,0,0,c,024,2019-06-09_17h27.54.339,Primed GoNogo,3.0.4,60,,,,,,,,,,,,,,,,,c,1,1,0,2,1,1,1,conditionsMaster2.csv,1,0,3,0,1,2,conditionsFile2.csv,1,0,1,0,1,0,conditions2.csv,"If you see a circle: 
respond with the letter  C   only if the triangle is in the middle. 

DO NOT press anything if the triangle is positioned on the left.
 

If you see a square:
Always respond with the letter  M   
",1,0,80,4,1,79,0.393
,,,,,,,,,,circle.jpg,0,0,c,024,2019-06-09_17h27.54.339,Primed GoNogo,3.0.4,60,,,,,,,,,,,,,,,,,c,1,1,0,2,1,1,1,conditionsMaster2.csv,1,0,3,0,1,2,conditionsFile2.csv,1,0,1,0,1,0,conditions2.csv,"If you see a circle: 
respond with the letter  C   only if the triangle is in the middle. 

DO NOT press anything if the triangle is positioned on the left.
 

If you see a square:
Always respond with the letter  M   
",1,0,80,77,1,79,0.347
,,,,,,,,,,square.jpg,0,0,m,024,2019-06-09_17h27.54.339,Primed GoNogo,3.0.4,60,,,,,,,,,,,,,,,,,m,1,1,0,2,1,1,1,conditionsMaster2.csv,1,0,3,0,1,2,conditionsFile2.csv,1,0,1,0,1,0,conditions2.csv,"If you see a circle: 
respond with the letter  C   only if the triangle is in the middle. 

DO NOT press anything if the triangle is positioned on the left.
 

If you see a square:
Always respond with the letter  M   
",1,0,80,50,1,79,0.375
,,,,,,,,,,circle.jpg,-0.1,0,none,024,2019-06-09_17h27.54.339,Primed GoNogo,3.0.4,60,,,,,,,,,,,,,,,,,c,0,1,0,2,1,1,1,conditionsMaster2.csv,1,0,3,0,1,2,conditionsFile2.csv,1,0,1,0,1,0,conditions2.csv,"If you see a circle: 
respond with the letter  C   only if the triangle is in the middle. 

DO NOT press anything if the triangle is positioned on the left.
 

If you see a square:
Always respond with the letter  M   
",1,0,80,23,1,79,0.248
,,,,,,,,,,circle.jpg,0,0,c,024,2019-06-09_17h27.54.339,Primed GoNogo,3.0.4,60,,,,,,,,,,,,,,,,,c,1,1,0,2,1,1,1,conditionsMaster2.csv,1,0,3,0,1,2,conditionsFile2.csv,1,0,1,0,1,0,conditions2.csv,"If you see a circle: 
respond with the letter  C   only if the triangle is in the middle. 

DO NOT press anything if the triangle is positioned on the left.
 

If you see a square:
Always respond with the letter  M   
",1,0,80,12,1,79,0.347
,,,,,,,,,,square.jpg,0,0,m,024,2019-06-09_17h27.54.339,Primed GoNogo,3.0.4,60,,,,,,,,,,,,,,,,,m,1,1,0,2,1,1,1,conditionsMaster2.csv,1,0,3,0,1,2,conditionsFile2.csv,1,0,1,0,1,0,conditions2.csv,"If you see a circle: 
respond with the letter  C   only if the triangle is in the middle. 

DO NOT press anything if the triangle is positioned on the left.
 

If you see a square:
Always respond with the letter  M   
",1,0,80,26,1,79,0.344
,,,,,,,,,,circle.jpg,0,0,c,024,2019-06-09_17h27.54.339,Primed GoNogo,3.0.4,60,,,,,,,,,,,,,,,,,m,0,1,0,2,1,1,1,conditionsMaster2.csv,1,0,3,0,1,2,conditionsFile2.csv,1,0,1,0,1,0,conditions2.csv,"If you see a circle: 
respond with the letter  C   only if the triangle is in the middle. 

DO NOT press anything if the triangle is positioned on the left.
 

If you see a square:
Always respond with the letter  M   
",1,0,80,21,1,79,0.341
,,,,,,,,,,circle.jpg,0,0,c,024,2019-06-09_17h27.54.339,Primed GoNogo,3.0.4,60,,,,,,,,,,,,,,,,,c,1,1,0,2,1,1,1,conditionsMaster2.csv,1,0,3,0,1,2,conditionsFile2.csv,1,0,1,0,1,0,conditions2.csv,"If you see a circle: 
respond with the letter  C   only if the triangle is in the middle. 

DO NOT press anything if the triangle is positioned on the left.
 

If you see a square:
Always respond with the letter  M   
",1,0,80,45,1,79,0.362
,,,,,,,,,,circle.jpg,-0.1,0,none,024,2019-06-09_17h27.54.339,Primed GoNogo,3.0.4,60,,,,,,,,,,,,,,,,,m,0,1,0,2,1,1,1,conditionsMaster2.csv,1,0,3,0,1,2,conditionsFile2.csv,1,0,1,0,1,0,conditions2.csv,"If you see a circle: 
respond with the letter  C   only if the triangle is in the middle. 

DO NOT press anything if the triangle is positioned on the left.
 

If you see a square:
Always respond with the letter  M   
",1,0,80,55,1,79,0.326
,,,,,,,,,,circle.jpg,-0.1,0,none,024,2019-06-09_17h27.54.339,Primed GoNogo,3.0.4,60,,,,,,,,,,,,,,,,,,1,1,0,2,1,1,1,conditionsMaster2.csv,1,0,3,0,1,2,conditionsFile2.csv,1,0,1,0,1,0,conditions2.csv,"If you see a circle: 
respond with the letter  C   only if the triangle is in the middle. 

DO NOT press anything if the triangle is positioned on the left.
 

If you see a square:
Always respond with the letter  M   
",1,0,80,63,1,79,
,,,,,,,,,,circle.jpg,0,0,c,024,2019-06-09_17h27.54.339,Primed GoNogo,3.0.4,60,,,,,,,,,,,,,,,,,c,1,1,0,2,1,1,1,conditionsMaster2.csv,1,0,3,0,1,2,conditionsFile2.csv,1,0,1,0,1,0,conditions2.csv,"If you see a circle: 
respond with the letter  C   only if the triangle is in the middle. 

DO NOT press anything if the triangle is positioned on the left.
 

If you see a square:
Always respond with the letter  M   
",1,0,80,68,1,79,0.312
,,,,,,,,,,square.jpg,0,0,m,024,2019-06-09_17h27.54.339,Primed GoNogo,3.0.4,60,,,,,,,,,,,,,,,,,m,1,1,0,2,1,1,1,conditionsMaster2.csv,1,0,3,0,1,2,conditionsFile2.csv,1,0,1,0,1,0,conditions2.csv,"If you see a circle: 
respond with the letter  C   only if the triangle is in the middle. 

DO NOT press anything if the triangle is positioned on the left.
 

If you see a square:
Always respond with the letter  M   
",1,0,80,56,1,79,0.233
,,,,,,,,,,square.jpg,0,0,m,024,2019-06-09_17h27.54.339,Primed GoNogo,3.0.4,60,,,,,,,,,,,,,,,,,m,1,1,0,2,1,1,1,conditionsMaster2.csv,1,0,3,0,1,2,conditionsFile2.csv,1,0,1,0,1,0,conditions2.csv,"If you see a circle: 
respond with the letter  C   only if the triangle is in the middle. 

DO NOT press anything if the triangle is positioned on the left.
 

If you see a square:
Always respond with the letter  M   
",1,0,80,9,1,79,0.443
,,,,,,,,,,circle.jpg,0,0,c,024,2019-06-09_17h27.54.339,Primed GoNogo,3.0.4,60,,,,,,,,,,,,,,,,,c,1,1,0,2,1,1,1,conditionsMaster2.csv,1,0,3,0,1,2,conditionsFile2.csv,1,0,1,0,1,0,conditions2.csv,"If you see a circle: 
respond with the letter  C   only if the triangle is in the middle. 

DO NOT press anything if the triangle is positioned on the left.
 

If you see a square:
Always respond with the letter  M   
",1,0,80,52,1,79,0.328
,,,,,,,,,,square.jpg,0,0,m,024,2019-06-09_17h27.54.339,Primed GoNogo,3.0.4,60,,,,,,,,,,,,,,,,,m,1,1,0,2,1,1,1,conditionsMaster2.csv,1,0,3,0,1,2,conditionsFile2.csv,1,0,1,0,1,0,conditions2.csv,"If you see a circle: 
respond with the letter  C   only if the triangle is in the middle. 

DO NOT press anything if the triangle is positioned on the left.
 

If you see a square:
Always respond with the letter  M   
",1,0,80,25,1,79,0.346
,,,,,,,,,,circle.jpg,0,0,c,024,2019-06-09_17h27.54.339,Primed GoNogo,3.0.4,60,,,,,,,,,,,,,,,,,c,1,1,0,2,1,1,1,conditionsMaster2.csv,1,0,3,0,1,2,conditionsFile2.csv,1,0,1,0,1,0,conditions2.csv,"If you see a circle: 
respond with the letter  C   only if the triangle is in the middle. 

DO NOT press anything if the triangle is positioned on the left.
 

If you see a square:
Always respond with the letter  M   
",1,0,80,6,1,79,0.333
,,,,,,,,,,circle.jpg,-0.1,0,none,024,2019-06-09_17h27.54.339,Primed GoNogo,3.0.4,60,,,,,,,,,,,,,,,,,c,0,1,0,2,1,1,1,conditionsMaster2.csv,1,0,3,0,1,2,conditionsFile2.csv,1,0,1,0,1,0,conditions2.csv,"If you see a circle: 
respond with the letter  C   only if the triangle is in the middle. 

DO NOT press anything if the triangle is positioned on the left.
 

If you see a square:
Always respond with the letter  M   
",1,0,80,39,1,79,0.396
,,,,,,,,,,square.jpg,0,0,m,024,2019-06-09_17h27.54.339,Primed GoNogo,3.0.4,60,,,,,,,,,,,,,,,,,,0,1,0,2,1,1,1,conditionsMaster2.csv,1,0,3,0,1,2,conditionsFile2.csv,1,0,1,0,1,0,conditions2.csv,"If you see a circle: 
respond with the letter  C   only if the triangle is in the middle. 

DO NOT press anything if the triangle is positioned on the left.
 

If you see a square:
Always respond with the letter  M   
",1,0,80,65,1,79,
,,,,,,,,,,circle.jpg,0,0,c,024,2019-06-09_17h27.54.339,Primed GoNogo,3.0.4,60,,,,,,,,,,,,,,,,,m,0,1,0,2,1,1,1,conditionsMaster2.csv,1,0,3,0,1,2,conditionsFile2.csv,1,0,1,0,1,0,conditions2.csv,"If you see a circle: 
respond with the letter  C   only if the triangle is in the middle. 

DO NOT press anything if the triangle is positioned on the left.
 

If you see a square:
Always respond with the letter  M   
",1,0,80,36,1,79,0.429
,,,,,,,,,,circle.jpg,0,0,c,024,2019-06-09_17h27.54.339,Primed GoNogo,3.0.4,60,,,,,,,,,,,,,,,,,c,1,1,0,2,1,1,1,conditionsMaster2.csv,1,0,3,0,1,2,conditionsFile2.csv,1,0,1,0,1,0,conditions2.csv,"If you see a circle: 
respond with the letter  C   only if the triangle is in the middle. 

DO NOT press anything if the triangle is positioned on the left.
 

If you see a square:
Always respond with the letter  M   
",1,0,80,54,1,79,0.362
,,,,,,,,,,square.jpg,0.1,0,m,024,2019-06-09_17h27.54.339,Primed GoNogo,3.0.4,60,,,,,,,,,,,,,,,,,m,1,1,0,2,1,1,1,conditionsMaster2.csv,1,0,3,0,1,2,conditionsFile2.csv,1,0,1,0,1,0,conditions2.csv,"If you see a circle: 
respond with the letter  C   only if the triangle is in the middle. 

DO NOT press anything if the triangle is positioned on the left.
 

If you see a square:
Always respond with the letter  M   
",1,0,80,51,1,79,0.26
,,,,,,,,,,square.jpg,0,0,m,024,2019-06-09_17h27.54.339,Primed GoNogo,3.0.4,60,,,,,,,,,,,,,,,,,c,0,1,0,2,1,1,1,conditionsMaster2.csv,1,0,3,0,1,2,conditionsFile2.csv,1,0,1,0,1,0,conditions2.csv,"If you see a circle: 
respond with the letter  C   only if the triangle is in the middle. 

DO NOT press anything if the triangle is positioned on the left.
 

If you see a square:
Always respond with the letter  M   
",1,0,80,48,1,79,0.363
,,,,,,,,,,circle.jpg,0,0,c,024,2019-06-09_17h27.54.339,Primed GoNogo,3.0.4,60,,,,,,,,,,,,,,,,,,0,1,0,2,1,1,1,conditionsMaster2.csv,1,0,3,0,1,2,conditionsFile2.csv,1,0,1,0,1,0,conditions2.csv,"If you see a circle: 
respond with the letter  C   only if the triangle is in the middle. 

DO NOT press anything if the triangle is positioned on the left.
 

If you see a square:
Always respond with the letter  M   
",1,0,80,53,1,79,
,,,,,,,,,,square.jpg,0.1,0,m,024,2019-06-09_17h27.54.339,Primed GoNogo,3.0.4,60,,,,,,,,,,,,,,,,,m,1,1,0,2,1,1,1,conditionsMaster2.csv,1,0,3,0,1,2,conditionsFile2.csv,1,0,1,0,1,0,conditions2.csv,"If you see a circle: 
respond with the letter  C   only if the triangle is in the middle. 

DO NOT press anything if the triangle is positioned on the left.
 

If you see a square:
Always respond with the letter  M   
",1,0,80,75,1,79,0.246
,,,,,,,,,,square.jpg,0,0,m,024,2019-06-09_17h27.54.339,Primed GoNogo,3.0.4,60,,,,,,,,,,,,,,,,,m,1,1,0,2,1,1,1,conditionsMaster2.csv,1,0,3,0,1,2,conditionsFile2.csv,1,0,1,0,1,0,conditions2.csv,"If you see a circle: 
respond with the letter  C   only if the triangle is in the middle. 

DO NOT press anything if the triangle is positioned on the left.
 

If you see a square:
Always respond with the letter  M   
",1,0,80,33,1,79,0.442
,,,,,,,,,,circle.jpg,-0.1,0,none,024,2019-06-09_17h27.54.339,Primed GoNogo,3.0.4,60,,,,,,,,,,,,,,,,,,1,1,0,2,1,1,1,conditionsMaster2.csv,1,0,3,0,1,2,conditionsFile2.csv,1,0,1,0,1,0,conditions2.csv,"If you see a circle: 
respond with the letter  C   only if the triangle is in the middle. 

DO NOT press anything if the triangle is positioned on the left.
 

If you see a square:
Always respond with the letter  M   
",1,0,80,47,1,79,
,,,,,,,,,,square.jpg,0.1,0,m,024,2019-06-09_17h27.54.339,Primed GoNogo,3.0.4,60,,,,,,,,,,,,,,,m,0.843,,0,1,0,2,1,1,1,conditionsMaster2.csv,1,0,3,0,1,2,conditionsFile2.csv,1,0,1,0,1,0,conditions2.csv,"If you see a circle: 
respond with the letter  C   only if the triangle is in the middle. 

DO NOT press anything if the triangle is positioned on the left.
 

If you see a square:
Always respond with the letter  M   
",1,0,80,27,1,79,
,,,,,,,,,,circle.jpg,0,0,c,024,2019-06-09_17h27.54.339,Primed GoNogo,3.0.4,60,,,,,,,,,,,,,,,,,c,1,1,0,2,1,1,1,conditionsMaster2.csv,1,0,3,0,1,2,conditionsFile2.csv,1,0,1,0,1,0,conditions2.csv,"If you see a circle: 
respond with the letter  C   only if the triangle is in the middle. 

DO NOT press anything if the triangle is positioned on the left.
 

If you see a square:
Always respond with the letter  M   
",1,0,80,44,1,79,0.476
,,,,,,,,,,circle.jpg,0,0,c,024,2019-06-09_17h27.54.339,Primed GoNogo,3.0.4,60,,,,,,,,,,,,,,,,,c,1,1,0,2,1,1,1,conditionsMaster2.csv,1,0,3,0,1,2,conditionsFile2.csv,1,0,1,0,1,0,conditions2.csv,"If you see a circle: 
respond with the letter  C   only if the triangle is in the middle. 

DO NOT press anything if the triangle is positioned on the left.
 

If you see a square:
Always respond with the letter  M   
",1,0,80,61,1,79,0.325
,,,,,,,,,,square.jpg,0,0,m,024,2019-06-09_17h27.54.339,Primed GoNogo,3.0.4,60,,,,,,,,,,,,,,,,,m,1,1,0,2,1,1,1,conditionsMaster2.csv,1,0,3,0,1,2,conditionsFile2.csv,1,0,1,0,1,0,conditions2.csv,"If you see a circle: 
respond with the letter  C   only if the triangle is in the middle. 

DO NOT press anything if the triangle is positioned on the left.
 

If you see a square:
Always respond with the letter  M   
",1,0,80,58,1,79,0.4
,,,,,,,,,,square.jpg,0,0,m,024,2019-06-09_17h27.54.339,Primed GoNogo,3.0.4,60,,,,,,,,,,,,,,,,,c,0,1,0,2,1,1,1,conditionsMaster2.csv,1,0,3,0,1,2,conditionsFile2.csv,1,0,1,0,1,0,conditions2.csv,"If you see a circle: 
respond with the letter  C   only if the triangle is in the middle. 

DO NOT press anything if the triangle is positioned on the left.
 

If you see a square:
Always respond with the letter  M   
",1,0,80,42,1,79,0.363
,,,,,,,,,,square.jpg,0,0,m,024,2019-06-09_17h27.54.339,Primed GoNogo,3.0.4,60,,,,,,,,,,,,,,,,,m,1,1,0,2,1,1,1,conditionsMaster2.csv,1,0,3,0,1,2,conditionsFile2.csv,1,0,1,0,1,0,conditions2.csv,"If you see a circle: 
respond with the letter  C   only if the triangle is in the middle. 

DO NOT press anything if the triangle is positioned on the left.
 

If you see a square:
Always respond with the letter  M   
",1,0,80,10,1,79,0.345
,,,,,,,,,,circle.jpg,0,0,c,024,2019-06-09_17h27.54.339,Primed GoNogo,3.0.4,60,,,,,,,,,,,,,,,,,,0,1,0,2,1,1,1,conditionsMaster2.csv,1,0,3,0,1,2,conditionsFile2.csv,1,0,1,0,1,0,conditions2.csv,"If you see a circle: 
respond with the letter  C   only if the triangle is in the middle. 

DO NOT press anything if the triangle is positioned on the left.
 

If you see a square:
Always respond with the letter  M   
",1,0,80,69,1,79,
,,,,,,,,,,square.jpg,0,0,m,024,2019-06-09_17h27.54.339,Primed GoNogo,3.0.4,60,,,,,,,,,,,,,,,,,m,1,1,0,2,1,1,1,conditionsMaster2.csv,1,0,3,0,1,2,conditionsFile2.csv,1,0,1,0,1,0,conditions2.csv,"If you see a circle: 
respond with the letter  C   only if the triangle is in the middle. 

DO NOT press anything if the triangle is positioned on the left.
 

If you see a square:
Always respond with the letter  M   
",1,0,80,17,1,79,0.245
,,,,,,,,,,square.jpg,0,0,m,024,2019-06-09_17h27.54.339,Primed GoNogo,3.0.4,60,,,,,,,,,,,,,,,,,m,1,1,0,2,1,1,1,conditionsMaster2.csv,1,0,3,0,1,2,conditionsFile2.csv,1,0,1,0,1,0,conditions2.csv,"If you see a circle: 
respond with the letter  C   only if the triangle is in the middle. 

DO NOT press anything if the triangle is positioned on the left.
 

If you see a square:
Always respond with the letter  M   
",1,0,80,16,1,79,0.116
,,,,,,,,,,circle.jpg,-0.1,0,none,024,2019-06-09_17h27.54.339,Primed GoNogo,3.0.4,60,,,,,,,,,,,,,,,,,,1,1,0,2,1,1,1,conditionsMaster2.csv,1,0,3,0,1,2,conditionsFile2.csv,1,0,1,0,1,0,conditions2.csv,"If you see a circle: 
respond with the letter  C   only if the triangle is in the middle. 

DO NOT press anything if the triangle is positioned on the left.
 

If you see a square:
Always respond with the letter  M   
",1,0,80,15,1,79,
,,,,,,,,,,circle.jpg,0,0,c,024,2019-06-09_17h27.54.339,Primed GoNogo,3.0.4,60,,,,,,,,,,,,,,,,,c,1,1,0,2,1,1,1,conditionsMaster2.csv,1,0,3,0,1,2,conditionsFile2.csv,1,0,1,0,1,0,conditions2.csv,"If you see a circle: 
respond with the letter  C   only if the triangle is in the middle. 

DO NOT press anything if the triangle is positioned on the left.
 

If you see a square:
Always respond with the letter  M   
",1,0,80,22,1,79,0.349
,,,,,,,,,,square.jpg,0,0,m,024,2019-06-09_17h27.54.339,Primed GoNogo,3.0.4,60,,,,,,,,,,,,,,,,,m,1,1,0,2,1,1,1,conditionsMaster2.csv,1,0,3,0,1,2,conditionsFile2.csv,1,0,1,0,1,0,conditions2.csv,"If you see a circle: 
respond with the letter  C   only if the triangle is in the middle. 

DO NOT press anything if the triangle is positioned on the left.
 

If you see a square:
Always respond with the letter  M   
",1,0,80,66,1,79,0.362
,,,,,,,,,,circle.jpg,-0.1,0,none,024,2019-06-09_17h27.54.339,Primed GoNogo,3.0.4,60,,,,,,,,,,,,,,,,,,1,1,0,2,1,1,1,conditionsMaster2.csv,1,0,3,0,1,2,conditionsFile2.csv,1,0,1,0,1,0,conditions2.csv,"If you see a circle: 
respond with the letter  C   only if the triangle is in the middle. 

DO NOT press anything if the triangle is positioned on the left.
 

If you see a square:
Always respond with the letter  M   
",1,0,80,71,1,79,
,,,,,,,,,,square.jpg,0,0,m,024,2019-06-09_17h27.54.339,Primed GoNogo,3.0.4,60,,,,,,,,,,,,,,,,,m,1,1,0,2,1,1,1,conditionsMaster2.csv,1,0,3,0,1,2,conditionsFile2.csv,1,0,1,0,1,0,conditions2.csv,"If you see a circle: 
respond with the letter  C   only if the triangle is in the middle. 

DO NOT press anything if the triangle is positioned on the left.
 

If you see a square:
Always respond with the letter  M   
",1,0,80,32,1,79,0.512
,,,,,,,,,,circle.jpg,0,0,c,024,2019-06-09_17h27.54.339,Primed GoNogo,3.0.4,60,,,,,,,,,,,,,,,,,c,1,1,0,2,1,1,1,conditionsMaster2.csv,1,0,3,0,1,2,conditionsFile2.csv,1,0,1,0,1,0,conditions2.csv,"If you see a circle: 
respond with the letter  C   only if the triangle is in the middle. 

DO NOT press anything if the triangle is positioned on the left.
 

If you see a square:
Always respond with the letter  M   
",1,0,80,13,1,79,0.261
,,,,,,,,,,square.jpg,0,0,m,024,2019-06-09_17h27.54.339,Primed GoNogo,3.0.4,60,,,,,,,,,,,,,,,,,m,1,1,0,2,1,1,1,conditionsMaster2.csv,1,0,3,0,1,2,conditionsFile2.csv,1,0,1,0,1,0,conditions2.csv,"If you see a circle: 
respond with the letter  C   only if the triangle is in the middle. 

DO NOT press anything if the triangle is positioned on the left.
 

If you see a square:
Always respond with the letter  M   
",1,0,80,40,1,79,0.361
,,,,,,,,,,square.jpg,0.1,0,m,024,2019-06-09_17h27.54.339,Primed GoNogo,3.0.4,60,,,,,,,,,,,,,,,,,m,1,1,0,2,1,1,1,conditionsMaster2.csv,1,0,3,0,1,2,conditionsFile2.csv,1,0,1,0,1,0,conditions2.csv,"If you see a circle: 
respond with the letter  C   only if the triangle is in the middle. 

DO NOT press anything if the triangle is positioned on the left.
 

If you see a square:
Always respond with the letter  M   
",1,0,80,43,1,79,0.333
,,,,,,,,,,circle.jpg,0,0,c,024,2019-06-09_17h27.54.339,Primed GoNogo,3.0.4,60,,,,,,,,,,,,,,,,,c,1,1,0,2,1,1,1,conditionsMaster2.csv,1,0,3,0,1,2,conditionsFile2.csv,1,0,1,0,1,0,conditions2.csv,"If you see a circle: 
respond with the letter  C   only if the triangle is in the middle. 

DO NOT press anything if the triangle is positioned on the left.
 

If you see a square:
Always respond with the letter  M   
",1,0,80,5,1,79,0.345
,,,,,,,,,,square.jpg,0,0,m,024,2019-06-09_17h27.54.339,Primed GoNogo,3.0.4,60,,,,,,,,,,,,,,,,,m,1,1,0,2,1,1,1,conditionsMaster2.csv,1,0,3,0,1,2,conditionsFile2.csv,1,0,1,0,1,0,conditions2.csv,"If you see a circle: 
respond with the letter  C   only if the triangle is in the middle. 

DO NOT press anything if the triangle is positioned on the left.
 

If you see a square:
Always respond with the letter  M   
",1,0,80,74,1,79,0.262
,,,,,,,,,,square.jpg,0,0,m,024,2019-06-09_17h27.54.339,Primed GoNogo,3.0.4,60,,,,,,,,,,,,,,,,,m,1,1,0,2,1,1,1,conditionsMaster2.csv,1,0,3,0,1,2,conditionsFile2.csv,1,0,1,0,1,0,conditions2.csv,"If you see a circle: 
respond with the letter  C   only if the triangle is in the middle. 

DO NOT press anything if the triangle is positioned on the left.
 

If you see a square:
Always respond with the letter  M   
",1,0,80,64,1,79,0.444
,,,,,,,,,,square.jpg,0,0,m,024,2019-06-09_17h27.54.339,Primed GoNogo,3.0.4,60,,,,,,,,,,,,,,,,,m,1,1,0,2,1,1,1,conditionsMaster2.csv,1,0,3,0,1,2,conditionsFile2.csv,1,0,1,0,1,0,conditions2.csv,"If you see a circle: 
respond with the letter  C   only if the triangle is in the middle. 

DO NOT press anything if the triangle is positioned on the left.
 

If you see a square:
Always respond with the letter  M   
",1,0,80,8,1,79,0.528
,,,,,,,,,,square.jpg,0.1,0,m,024,2019-06-09_17h27.54.339,Primed GoNogo,3.0.4,60,,,,,,,,,,,,,,,,,m,1,1,0,2,1,1,1,conditionsMaster2.csv,1,0,3,0,1,2,conditionsFile2.csv,1,0,1,0,1,0,conditions2.csv,"If you see a circle: 
respond with the letter  C   only if the triangle is in the middle. 

DO NOT press anything if the triangle is positioned on the left.
 

If you see a square:
Always respond with the letter  M   
",1,0,80,19,1,79,0.278
,,,,,,,,,,circle.jpg,0,0,c,024,2019-06-09_17h27.54.339,Primed GoNogo,3.0.4,60,,,,,,,,,,,,,,,,,c,1,1,0,2,1,1,1,conditionsMaster2.csv,1,0,3,0,1,2,conditionsFile2.csv,1,0,1,0,1,0,conditions2.csv,"If you see a circle: 
respond with the letter  C   only if the triangle is in the middle. 

DO NOT press anything if the triangle is positioned on the left.
 

If you see a square:
Always respond with the letter  M   
",1,0,80,76,1,79,0.398
,,,,,,,,,,circle.jpg,0,0,c,024,2019-06-09_17h27.54.339,Primed GoNogo,3.0.4,60,,,,,,,,,,,,,,,,,c,1,1,0,2,1,1,1,conditionsMaster2.csv,1,0,3,0,1,2,conditionsFile2.csv,1,0,1,0,1,0,conditions2.csv,"If you see a circle: 
respond with the letter  C   only if the triangle is in the middle. 

DO NOT press anything if the triangle is positioned on the left.
 

If you see a square:
Always respond with the letter  M   
",1,0,80,78,1,79,0.53
,,,,,,,,,,circle.jpg,0,0,c,024,2019-06-09_17h27.54.339,Primed GoNogo,3.0.4,60,,,,,,,,,,,,,,,,,c,1,1,0,2,1,1,1,conditionsMaster2.csv,1,0,3,0,1,2,conditionsFile2.csv,1,0,1,0,1,0,conditions2.csv,"If you see a circle: 
respond with the letter  C   only if the triangle is in the middle. 

DO NOT press anything if the triangle is positioned on the left.
 

If you see a square:
Always respond with the letter  M   
",1,0,80,46,1,79,0.328
,,,,,,,,,,circle.jpg,0,0,c,024,2019-06-09_17h27.54.339,Primed GoNogo,3.0.4,60,,,,,,,,,,,,,,,,,c,1,1,0,2,1,1,1,conditionsMaster2.csv,1,0,3,0,1,2,conditionsFile2.csv,1,0,1,0,1,0,conditions2.csv,"If you see a circle: 
respond with the letter  C   only if the triangle is in the middle. 

DO NOT press anything if the triangle is positioned on the left.
 

If you see a square:
Always respond with the letter  M   
",1,0,80,14,1,79,0.33
,,,,,,,,,,circle.jpg,0,0,c,024,2019-06-09_17h27.54.339,Primed GoNogo,3.0.4,60,,,,,,,,,,,,,,,,,c,1,1,0,2,1,1,1,conditionsMaster2.csv,1,0,3,0,1,2,conditionsFile2.csv,1,0,1,0,1,0,conditions2.csv,"If you see a circle: 
respond with the letter  C   only if the triangle is in the middle. 

DO NOT press anything if the triangle is positioned on the left.
 

If you see a square:
Always respond with the letter  M   
",1,0,80,62,1,79,0.313
,,,,,,,,,,square.jpg,0,0,m,024,2019-06-09_17h27.54.339,Primed GoNogo,3.0.4,60,,,,,,,,,,,,,,,,,m,1,1,0,2,1,1,1,conditionsMaster2.csv,1,0,3,0,1,2,conditionsFile2.csv,1,0,1,0,1,0,conditions2.csv,"If you see a circle: 
respond with the letter  C   only if the triangle is in the middle. 

DO NOT press anything if the triangle is positioned on the left.
 

If you see a square:
Always respond with the letter  M   
",1,0,80,34,1,79,0.232
,,,,,,,,,,square.jpg,0.1,0,m,024,2019-06-09_17h27.54.339,Primed GoNogo,3.0.4,60,,,,,,,,,,,,,,,,,m,1,1,0,2,1,1,1,conditionsMaster2.csv,1,0,3,0,1,2,conditionsFile2.csv,1,0,1,0,1,0,conditions2.csv,"If you see a circle: 
respond with the letter  C   only if the triangle is in the middle. 

DO NOT press anything if the triangle is positioned on the left.
 

If you see a square:
Always respond with the letter  M   
",1,0,80,67,1,79,0.377
,,,,,,,,,,square.jpg,0,0,m,024,2019-06-09_17h27.54.339,Primed GoNogo,3.0.4,60,,,,,,,,,,,,,,,,,m,1,1,0,2,1,1,1,conditionsMaster2.csv,1,0,3,0,1,2,conditionsFile2.csv,1,0,1,0,1,0,conditions2.csv,"If you see a circle: 
respond with the letter  C   only if the triangle is in the middle. 

DO NOT press anything if the triangle is positioned on the left.
 

If you see a square:
Always respond with the letter  M   
",1,0,80,73,1,79,0.277
,,,,,,,,,,square.jpg,0,0,m,024,2019-06-09_17h27.54.339,Primed GoNogo,3.0.4,60,,,,,,,,,,,,,,,,,m,1,1,0,2,1,1,1,conditionsMaster2.csv,1,0,3,0,1,2,conditionsFile2.csv,1,0,1,0,1,0,conditions2.csv,"If you see a circle: 
respond with the letter  C   only if the triangle is in the middle. 

DO NOT press anything if the triangle is positioned on the left.
 

If you see a square:
Always respond with the letter  M   
",1,0,80,1,1,79,0.278
,,,,,,,,,,square.jpg,0,0,m,024,2019-06-09_17h27.54.339,Primed GoNogo,3.0.4,60,,,,,,,,,,,,,,,,,m,1,1,0,2,1,1,1,conditionsMaster2.csv,1,0,3,0,1,2,conditionsFile2.csv,1,0,1,0,1,0,conditions2.csv,"If you see a circle: 
respond with the letter  C   only if the triangle is in the middle. 

DO NOT press anything if the triangle is positioned on the left.
 

If you see a square:
Always respond with the letter  M   
",1,0,80,24,1,79,0.298
,,,,,,,,,,square.jpg,0,0,m,024,2019-06-09_17h27.54.339,Primed GoNogo,3.0.4,60,,,,,,,,,,,,,,,,,m,1,1,0,2,1,1,1,conditionsMaster2.csv,1,0,3,0,1,2,conditionsFile2.csv,1,0,1,0,1,0,conditions2.csv,"If you see a circle: 
respond with the letter  C   only if the triangle is in the middle. 

DO NOT press anything if the triangle is positioned on the left.
 

If you see a square:
Always respond with the letter  M   
",1,0,80,2,1,79,0.344
,,,,,,,,,,circle.jpg,0,0,c,024,2019-06-09_17h27.54.339,Primed GoNogo,3.0.4,60,,,,,,,,,,,,,,,,,c,1,1,0,2,1,1,1,conditionsMaster2.csv,1,0,3,0,1,2,conditionsFile2.csv,1,0,1,0,1,0,conditions2.csv,"If you see a circle: 
respond with the letter  C   only if the triangle is in the middle. 

DO NOT press anything if the triangle is positioned on the left.
 

If you see a square:
Always respond with the letter  M   
",1,0,80,29,1,79,0.363
,,,,,,,,,,square.jpg,0,0,m,024,2019-06-09_17h27.54.339,Primed GoNogo,3.0.4,60,,,,,,,,,,,,,,,,,m,1,1,0,2,1,1,1,conditionsMaster2.csv,1,0,3,0,1,2,conditionsFile2.csv,1,0,1,0,1,0,conditions2.csv,"If you see a circle: 
respond with the letter  C   only if the triangle is in the middle. 

DO NOT press anything if the triangle is positioned on the left.
 

If you see a square:
Always respond with the letter  M   
",1,0,80,0,1,79,0.254
,,,,,,,,,,square.jpg,0,0,m,024,2019-06-09_17h27.54.339,Primed GoNogo,3.0.4,60,,,,,,,,,,,,,,,,,m,1,1,0,2,1,1,1,conditionsMaster2.csv,1,0,3,0,1,2,conditionsFile2.csv,1,0,1,0,1,0,conditions2.csv,"If you see a circle: 
respond with the letter  C   only if the triangle is in the middle. 

DO NOT press anything if the triangle is positioned on the left.
 

If you see a square:
Always respond with the letter  M   
",1,0,80,41,1,79,0.31
,,,,,,,,,,,,,,024,2019-06-09_17h27.54.339,Primed GoNogo,3.0.4,60,,,,,,,,,,,,,,,,,,,1,0,2,1,1,1,conditionsMaster2.csv,1,0,3,0,1,2,conditionsFile2.csv,1,0,1,0,1,0,conditions2.csv,"If you see a circle: 
respond with the letter  C   only if the triangle is in the middle. 

DO NOT press anything if the triangle is positioned on the left.
 

If you see a square:
Always respond with the letter  M   
",,,,,,,
,,,,,,,,,,,,,,024,2019-06-09_17h27.54.339,Primed GoNogo,3.0.4,60,,,,,,,,,,,,,,,,,,,1,0,2,1,1,1,conditionsMaster2.csv,1,0,3,0,1,2,conditionsFile2.csv,,,,,,,,,,,,,,,
,,,,,,,,,,circle.jpg,0,0,c,024,2019-06-09_17h27.54.339,Primed GoNogo,3.0.4,60,,,,,,,,,,,,,,,,,c,1,1,0,2,1,1,1,conditionsMaster2.csv,1,0,3,1,1,2,conditionsFile1.csv,1,0,1,0,1,0,conditions1.csv,"If you see a circle: 
always respond with the letter  C. 

If you see a square:
respond with the letter  M  only if the triangle is in the middle. 

DO NOT press anything if the triangle is positioned on the right.",1,0,80,13,1,79,0.393
,,,,,,,,,,square.jpg,0,0,m,024,2019-06-09_17h27.54.339,Primed GoNogo,3.0.4,60,,,,,,,,,,,,,,,m,0.342,,0,1,0,2,1,1,1,conditionsMaster2.csv,1,0,3,1,1,2,conditionsFile1.csv,1,0,1,0,1,0,conditions1.csv,"If you see a circle: 
always respond with the letter  C. 

If you see a square:
respond with the letter  M  only if the triangle is in the middle. 

DO NOT press anything if the triangle is positioned on the right.",1,0,80,40,1,79,
,,,,,,,,,,circle.jpg,0,0,c,024,2019-06-09_17h27.54.339,Primed GoNogo,3.0.4,60,,,,,,,,,,,,,,,,,c,1,1,0,2,1,1,1,conditionsMaster2.csv,1,0,3,1,1,2,conditionsFile1.csv,1,0,1,0,1,0,conditions1.csv,"If you see a circle: 
always respond with the letter  C. 

If you see a square:
respond with the letter  M  only if the triangle is in the middle. 

DO NOT press anything if the triangle is positioned on the right.",1,0,80,21,1,79,0.249
,,,,,,,,,,circle.jpg,0,0,c,024,2019-06-09_17h27.54.339,Primed GoNogo,3.0.4,60,,,,,,,,,,,,,,,,,c,1,1,0,2,1,1,1,conditionsMaster2.csv,1,0,3,1,1,2,conditionsFile1.csv,1,0,1,0,1,0,conditions1.csv,"If you see a circle: 
always respond with the letter  C. 

If you see a square:
respond with the letter  M  only if the triangle is in the middle. 

DO NOT press anything if the triangle is positioned on the right.",1,0,80,44,1,79,0.307
,,,,,,,,,,square.jpg,0,0,m,024,2019-06-09_17h27.54.339,Primed GoNogo,3.0.4,60,,,,,,,,,,,,,,,,,m,1,1,0,2,1,1,1,conditionsMaster2.csv,1,0,3,1,1,2,conditionsFile1.csv,1,0,1,0,1,0,conditions1.csv,"If you see a circle: 
always respond with the letter  C. 

If you see a square:
respond with the letter  M  only if the triangle is in the middle. 

DO NOT press anything if the triangle is positioned on the right.",1,0,80,1,1,79,0.247
,,,,,,,,,,square.jpg,0,0,m,024,2019-06-09_17h27.54.339,Primed GoNogo,3.0.4,60,,,,,,,,,,,,,,,,,m,1,1,0,2,1,1,1,conditionsMaster2.csv,1,0,3,1,1,2,conditionsFile1.csv,1,0,1,0,1,0,conditions1.csv,"If you see a circle: 
always respond with the letter  C. 

If you see a square:
respond with the letter  M  only if the triangle is in the middle. 

DO NOT press anything if the triangle is positioned on the right.",1,0,80,10,1,79,0.212
,,,,,,,,,,circle.jpg,0,0,c,024,2019-06-09_17h27.54.339,Primed GoNogo,3.0.4,60,,,,,,,,,,,,,,,,,c,1,1,0,2,1,1,1,conditionsMaster2.csv,1,0,3,1,1,2,conditionsFile1.csv,1,0,1,0,1,0,conditions1.csv,"If you see a circle: 
always respond with the letter  C. 

If you see a square:
respond with the letter  M  only if the triangle is in the middle. 

DO NOT press anything if the triangle is positioned on the right.",1,0,80,52,1,79,0.264
,,,,,,,,,,square.jpg,0,0,m,024,2019-06-09_17h27.54.339,Primed GoNogo,3.0.4,60,,,,,,,,,,,,,,,,,m,1,1,0,2,1,1,1,conditionsMaster2.csv,1,0,3,1,1,2,conditionsFile1.csv,1,0,1,0,1,0,conditions1.csv,"If you see a circle: 
always respond with the letter  C. 

If you see a square:
respond with the letter  M  only if the triangle is in the middle. 

DO NOT press anything if the triangle is positioned on the right.",1,0,80,56,1,79,0.245
,,,,,,,,,,circle.jpg,0,0,c,024,2019-06-09_17h27.54.339,Primed GoNogo,3.0.4,60,,,,,,,,,,,,,,,,,c,1,1,0,2,1,1,1,conditionsMaster2.csv,1,0,3,1,1,2,conditionsFile1.csv,1,0,1,0,1,0,conditions1.csv,"If you see a circle: 
always respond with the letter  C. 

If you see a square:
respond with the letter  M  only if the triangle is in the middle. 

DO NOT press anything if the triangle is positioned on the right.",1,0,80,12,1,79,0.31
,,,,,,,,,,square.jpg,0,0,m,024,2019-06-09_17h27.54.339,Primed GoNogo,3.0.4,60,,,,,,,,,,,,,,,,,m,1,1,0,2,1,1,1,conditionsMaster2.csv,1,0,3,1,1,2,conditionsFile1.csv,1,0,1,0,1,0,conditions1.csv,"If you see a circle: 
always respond with the letter  C. 

If you see a square:
respond with the letter  M  only if the triangle is in the middle. 

DO NOT press anything if the triangle is positioned on the right.",1,0,80,8,1,79,0.328
,,,,,,,,,,square.jpg,0,0,m,024,2019-06-09_17h27.54.339,Primed GoNogo,3.0.4,60,,,,,,,,,,,,,,,,,m,1,1,0,2,1,1,1,conditionsMaster2.csv,1,0,3,1,1,2,conditionsFile1.csv,1,0,1,0,1,0,conditions1.csv,"If you see a circle: 
always respond with the letter  C. 

If you see a square:
respond with the letter  M  only if the triangle is in the middle. 

DO NOT press anything if the triangle is positioned on the right.",1,0,80,50,1,79,0.261
,,,,,,,,,,square.jpg,0,0,m,024,2019-06-09_17h27.54.339,Primed GoNogo,3.0.4,60,,,,,,,,,,,,,,,,,m,1,1,0,2,1,1,1,conditionsMaster2.csv,1,0,3,1,1,2,conditionsFile1.csv,1,0,1,0,1,0,conditions1.csv,"If you see a circle: 
always respond with the letter  C. 

If you see a square:
respond with the letter  M  only if the triangle is in the middle. 

DO NOT press anything if the triangle is positioned on the right.",1,0,80,49,1,79,0.295
,,,,,,,,,,square.jpg,0.1,0,none,024,2019-06-09_17h27.54.339,Primed GoNogo,3.0.4,60,,,,,,,,,,,,,,,,,,1,1,0,2,1,1,1,conditionsMaster2.csv,1,0,3,1,1,2,conditionsFile1.csv,1,0,1,0,1,0,conditions1.csv,"If you see a circle: 
always respond with the letter  C. 

If you see a square:
respond with the letter  M  only if the triangle is in the middle. 

DO NOT press anything if the triangle is positioned on the right.",1,0,80,19,1,79,
,,,,,,,,,,square.jpg,0,0,m,024,2019-06-09_17h27.54.339,Primed GoNogo,3.0.4,60,,,,,,,,,,,,,,,,,m,1,1,0,2,1,1,1,conditionsMaster2.csv,1,0,3,1,1,2,conditionsFile1.csv,1,0,1,0,1,0,conditions1.csv,"If you see a circle: 
always respond with the letter  C. 

If you see a square:
respond with the letter  M  only if the triangle is in the middle. 

DO NOT press anything if the triangle is positioned on the right.",1,0,80,65,1,79,0.232
,,,,,,,,,,square.jpg,0,0,m,024,2019-06-09_17h27.54.339,Primed GoNogo,3.0.4,60,,,,,,,,,,,,,,,,,m,1,1,0,2,1,1,1,conditionsMaster2.csv,1,0,3,1,1,2,conditionsFile1.csv,1,0,1,0,1,0,conditions1.csv,"If you see a circle: 
always respond with the letter  C. 

If you see a square:
respond with the letter  M  only if the triangle is in the middle. 

DO NOT press anything if the triangle is positioned on the right.",1,0,80,16,1,79,0.279
,,,,,,,,,,circle.jpg,0,0,c,024,2019-06-09_17h27.54.339,Primed GoNogo,3.0.4,60,,,,,,,,,,,,,,,,,c,1,1,0,2,1,1,1,conditionsMaster2.csv,1,0,3,1,1,2,conditionsFile1.csv,1,0,1,0,1,0,conditions1.csv,"If you see a circle: 
always respond with the letter  C. 

If you see a square:
respond with the letter  M  only if the triangle is in the middle. 

DO NOT press anything if the triangle is positioned on the right.",1,0,80,5,1,79,0.259
,,,,,,,,,,circle.jpg,0,0,c,024,2019-06-09_17h27.54.339,Primed GoNogo,3.0.4,60,,,,,,,,,,,,,,,,,c,1,1,0,2,1,1,1,conditionsMaster2.csv,1,0,3,1,1,2,conditionsFile1.csv,1,0,1,0,1,0,conditions1.csv,"If you see a circle: 
always respond with the letter  C. 

If you see a square:
respond with the letter  M  only if the triangle is in the middle. 

DO NOT press anything if the triangle is positioned on the right.",1,0,80,22,1,79,0.248
,,,,,,,,,,circle.jpg,-0.1,0,c,024,2019-06-09_17h27.54.339,Primed GoNogo,3.0.4,60,,,,,,,,,,,,,,,,,,0,1,0,2,1,1,1,conditionsMaster2.csv,1,0,3,1,1,2,conditionsFile1.csv,1,0,1,0,1,0,conditions1.csv,"If you see a circle: 
always respond with the letter  C. 

If you see a square:
respond with the letter  M  only if the triangle is in the middle. 

DO NOT press anything if the triangle is positioned on the right.",1,0,80,15,1,79,
,,,,,,,,,,square.jpg,0,0,m,024,2019-06-09_17h27.54.339,Primed GoNogo,3.0.4,60,,,,,,,,,,,,,,,,,,0,1,0,2,1,1,1,conditionsMaster2.csv,1,0,3,1,1,2,conditionsFile1.csv,1,0,1,0,1,0,conditions1.csv,"If you see a circle: 
always respond with the letter  C. 

If you see a square:
respond with the letter  M  only if the triangle is in the middle. 

DO NOT press anything if the triangle is positioned on the right.",1,0,80,64,1,79,
,,,,,,,,,,square.jpg,0,0,m,024,2019-06-09_17h27.54.339,Primed GoNogo,3.0.4,60,,,,,,,,,,,,,,,,,m,1,1,0,2,1,1,1,conditionsMaster2.csv,1,0,3,1,1,2,conditionsFile1.csv,1,0,1,0,1,0,conditions1.csv,"If you see a circle: 
always respond with the letter  C. 

If you see a square:
respond with the letter  M  only if the triangle is in the middle. 

DO NOT press anything if the triangle is positioned on the right.",1,0,80,25,1,79,0.228
,,,,,,,,,,square.jpg,0.1,0,none,024,2019-06-09_17h27.54.339,Primed GoNogo,3.0.4,60,,,,,,,,,,,,,,,,,,1,1,0,2,1,1,1,conditionsMaster2.csv,1,0,3,1,1,2,conditionsFile1.csv,1,0,1,0,1,0,conditions1.csv,"If you see a circle: 
always respond with the letter  C. 

If you see a square:
respond with the letter  M  only if the triangle is in the middle. 

DO NOT press anything if the triangle is positioned on the right.",1,0,80,3,1,79,
,,,,,,,,,,square.jpg,0.1,0,none,024,2019-06-09_17h27.54.339,Primed GoNogo,3.0.4,60,,,,,,,,,,,,,,,,,,1,1,0,2,1,1,1,conditionsMaster2.csv,1,0,3,1,1,2,conditionsFile1.csv,1,0,1,0,1,0,conditions1.csv,"If you see a circle: 
always respond with the letter  C. 

If you see a square:
respond with the letter  M  only if the triangle is in the middle. 

DO NOT press anything if the triangle is positioned on the right.",1,0,80,43,1,79,
,,,,,,,,,,circle.jpg,-0.1,0,c,024,2019-06-09_17h27.54.339,Primed GoNogo,3.0.4,60,,,,,,,,,,,,,,,,,c,1,1,0,2,1,1,1,conditionsMaster2.csv,1,0,3,1,1,2,conditionsFile1.csv,1,0,1,0,1,0,conditions1.csv,"If you see a circle: 
always respond with the letter  C. 

If you see a square:
respond with the letter  M  only if the triangle is in the middle. 

DO NOT press anything if the triangle is positioned on the right.",1,0,80,7,1,79,0.232
,,,,,,,,,,circle.jpg,-0.1,0,c,024,2019-06-09_17h27.54.339,Primed GoNogo,3.0.4,60,,,,,,,,,,,,,,,,,c,1,1,0,2,1,1,1,conditionsMaster2.csv,1,0,3,1,1,2,conditionsFile1.csv,1,0,1,0,1,0,conditions1.csv,"If you see a circle: 
always respond with the letter  C. 

If you see a square:
respond with the letter  M  only if the triangle is in the middle. 

DO NOT press anything if the triangle is positioned on the right.",1,0,80,47,1,79,0.307
,,,,,,,,,,circle.jpg,0,0,c,024,2019-06-09_17h27.54.339,Primed GoNogo,3.0.4,60,,,,,,,,,,,,,,,,,c,1,1,0,2,1,1,1,conditionsMaster2.csv,1,0,3,1,1,2,conditionsFile1.csv,1,0,1,0,1,0,conditions1.csv,"If you see a circle: 
always respond with the letter  C. 

If you see a square:
respond with the letter  M  only if the triangle is in the middle. 

DO NOT press anything if the triangle is positioned on the right.",1,0,80,29,1,79,0.329
,,,,,,,,,,circle.jpg,-0.1,0,c,024,2019-06-09_17h27.54.339,Primed GoNogo,3.0.4,60,,,,,,,,,,,,,,,,,c,1,1,0,2,1,1,1,conditionsMaster2.csv,1,0,3,1,1,2,conditionsFile1.csv,1,0,1,0,1,0,conditions1.csv,"If you see a circle: 
always respond with the letter  C. 

If you see a square:
respond with the letter  M  only if the triangle is in the middle. 

DO NOT press anything if the triangle is positioned on the right.",1,0,80,23,1,79,0.497
,,,,,,,,,,circle.jpg,-0.1,0,c,024,2019-06-09_17h27.54.339,Primed GoNogo,3.0.4,60,,,,,,,,,,,,,,,,,,0,1,0,2,1,1,1,conditionsMaster2.csv,1,0,3,1,1,2,conditionsFile1.csv,1,0,1,0,1,0,conditions1.csv,"If you see a circle: 
always respond with the letter  C. 

If you see a square:
respond with the letter  M  only if the triangle is in the middle. 

DO NOT press anything if the triangle is positioned on the right.",1,0,80,79,1,79,
,,,,,,,,,,square.jpg,0,0,m,024,2019-06-09_17h27.54.339,Primed GoNogo,3.0.4,60,,,,,,,,,,,,,,,,,,0,1,0,2,1,1,1,conditionsMaster2.csv,1,0,3,1,1,2,conditionsFile1.csv,1,0,1,0,1,0,conditions1.csv,"If you see a circle: 
always respond with the letter  C. 

If you see a square:
respond with the letter  M  only if the triangle is in the middle. 

DO NOT press anything if the triangle is positioned on the right.",1,0,80,41,1,79,
,,,,,,,,,,circle.jpg,0,0,c,024,2019-06-09_17h27.54.339,Primed GoNogo,3.0.4,60,,,,,,,,,,,,,,,,,c,1,1,0,2,1,1,1,conditionsMaster2.csv,1,0,3,1,1,2,conditionsFile1.csv,1,0,1,0,1,0,conditions1.csv,"If you see a circle: 
always respond with the letter  C. 

If you see a square:
respond with the letter  M  only if the triangle is in the middle. 

DO NOT press anything if the triangle is positioned on the right.",1,0,80,14,1,79,0.159
,,,,,,,,,,circle.jpg,0,0,c,024,2019-06-09_17h27.54.339,Primed GoNogo,3.0.4,60,,,,,,,,,,,,,,,,,c,1,1,0,2,1,1,1,conditionsMaster2.csv,1,0,3,1,1,2,conditionsFile1.csv,1,0,1,0,1,0,conditions1.csv,"If you see a circle: 
always respond with the letter  C. 

If you see a square:
respond with the letter  M  only if the triangle is in the middle. 

DO NOT press anything if the triangle is positioned on the right.",1,0,80,68,1,79,0.245
,,,,,,,,,,square.jpg,0.1,0,none,024,2019-06-09_17h27.54.339,Primed GoNogo,3.0.4,60,,,,,,,,,,,,,,,,,,1,1,0,2,1,1,1,conditionsMaster2.csv,1,0,3,1,1,2,conditionsFile1.csv,1,0,1,0,1,0,conditions1.csv,"If you see a circle: 
always respond with the letter  C. 

If you see a square:
respond with the letter  M  only if the triangle is in the middle. 

DO NOT press anything if the triangle is positioned on the right.",1,0,80,35,1,79,
,,,,,,,,,,circle.jpg,-0.1,0,c,024,2019-06-09_17h27.54.339,Primed GoNogo,3.0.4,60,,,,,,,,,,,,,,,,,m,0,1,0,2,1,1,1,conditionsMaster2.csv,1,0,3,1,1,2,conditionsFile1.csv,1,0,1,0,1,0,conditions1.csv,"If you see a circle: 
always respond with the letter  C. 

If you see a square:
respond with the letter  M  only if the triangle is in the middle. 

DO NOT press anything if the triangle is positioned on the right.",1,0,80,31,1,79,0.261
,,,,,,,,,,circle.jpg,0,0,c,024,2019-06-09_17h27.54.339,Primed GoNogo,3.0.4,60,,,,,,,,,,,,,,,,,c,1,1,0,2,1,1,1,conditionsMaster2.csv,1,0,3,1,1,2,conditionsFile1.csv,1,0,1,0,1,0,conditions1.csv,"If you see a circle: 
always respond with the letter  C. 

If you see a square:
respond with the letter  M  only if the triangle is in the middle. 

DO NOT press anything if the triangle is positioned on the right.",1,0,80,61,1,79,0.213
,,,,,,,,,,square.jpg,0,0,m,024,2019-06-09_17h27.54.339,Primed GoNogo,3.0.4,60,,,,,,,,,,,,,,,,,m,1,1,0,2,1,1,1,conditionsMaster2.csv,1,0,3,1,1,2,conditionsFile1.csv,1,0,1,0,1,0,conditions1.csv,"If you see a circle: 
always respond with the letter  C. 

If you see a square:
respond with the letter  M  only if the triangle is in the middle. 

DO NOT press anything if the triangle is positioned on the right.",1,0,80,18,1,79,0.229
,,,,,,,,,,circle.jpg,-0.1,0,c,024,2019-06-09_17h27.54.339,Primed GoNogo,3.0.4,60,,,,,,,,,,,,,,,,,c,1,1,0,2,1,1,1,conditionsMaster2.csv,1,0,3,1,1,2,conditionsFile1.csv,1,0,1,0,1,0,conditions1.csv,"If you see a circle: 
always respond with the letter  C. 

If you see a square:
respond with the letter  M  only if the triangle is in the middle. 

DO NOT press anything if the triangle is positioned on the right.",1,0,80,55,1,79,0.246
,,,,,,,,,,circle.jpg,0,0,c,024,2019-06-09_17h27.54.339,Primed GoNogo,3.0.4,60,,,,,,,,,,,,,,,,,c,1,1,0,2,1,1,1,conditionsMaster2.csv,1,0,3,1,1,2,conditionsFile1.csv,1,0,1,0,1,0,conditions1.csv,"If you see a circle: 
always respond with the letter  C. 

If you see a square:
respond with the letter  M  only if the triangle is in the middle. 

DO NOT press anything if the triangle is positioned on the right.",1,0,80,28,1,79,0.013
,,,,,,,,,,circle.jpg,0,0,c,024,2019-06-09_17h27.54.339,Primed GoNogo,3.0.4,60,,,,,,,,,,,,,,,,,c,1,1,0,2,1,1,1,conditionsMaster2.csv,1,0,3,1,1,2,conditionsFile1.csv,1,0,1,0,1,0,conditions1.csv,"If you see a circle: 
always respond with the letter  C. 

If you see a square:
respond with the letter  M  only if the triangle is in the middle. 

DO NOT press anything if the triangle is positioned on the right.",1,0,80,62,1,79,0.079
,,,,,,,,,,square.jpg,0,0,m,024,2019-06-09_17h27.54.339,Primed GoNogo,3.0.4,60,,,,,,,,,,,,,,,,,m,1,1,0,2,1,1,1,conditionsMaster2.csv,1,0,3,1,1,2,conditionsFile1.csv,1,0,1,0,1,0,conditions1.csv,"If you see a circle: 
always respond with the letter  C. 

If you see a square:
respond with the letter  M  only if the triangle is in the middle. 

DO NOT press anything if the triangle is positioned on the right.",1,0,80,33,1,79,0.126
,,,,,,,,,,square.jpg,0.1,0,none,024,2019-06-09_17h27.54.339,Primed GoNogo,3.0.4,60,,,,,,,,,,,,,,,,,m,0,1,0,2,1,1,1,conditionsMaster2.csv,1,0,3,1,1,2,conditionsFile1.csv,1,0,1,0,1,0,conditions1.csv,"If you see a circle: 
always respond with the letter  C. 

If you see a square:
respond with the letter  M  only if the triangle is in the middle. 

DO NOT press anything if the triangle is positioned on the right.",1,0,80,11,1,79,0.293
,,,,,,,,,,square.jpg,0,0,m,024,2019-06-09_17h27.54.339,Primed GoNogo,3.0.4,60,,,,,,,,,,,,,,,,,c,0,1,0,2,1,1,1,conditionsMaster2.csv,1,0,3,1,1,2,conditionsFile1.csv,1,0,1,0,1,0,conditions1.csv,"If you see a circle: 
always respond with the letter  C. 

If you see a square:
respond with the letter  M  only if the triangle is in the middle. 

DO NOT press anything if the triangle is positioned on the right.",1,0,80,26,1,79,0.411
,,,,,,,,,,square.jpg,0,0,m,024,2019-06-09_17h27.54.339,Primed GoNogo,3.0.4,60,,,,,,,,,,,,,,,,,m,1,1,0,2,1,1,1,conditionsMaster2.csv,1,0,3,1,1,2,conditionsFile1.csv,1,0,1,0,1,0,conditions1.csv,"If you see a circle: 
always respond with the letter  C. 

If you see a square:
respond with the letter  M  only if the triangle is in the middle. 

DO NOT press anything if the triangle is positioned on the right.",1,0,80,48,1,79,0.032
,,,,,,,,,,square.jpg,0,0,m,024,2019-06-09_17h27.54.339,Primed GoNogo,3.0.4,60,,,,,,,,,,,,,,,,,m,1,1,0,2,1,1,1,conditionsMaster2.csv,1,0,3,1,1,2,conditionsFile1.csv,1,0,1,0,1,0,conditions1.csv,"If you see a circle: 
always respond with the letter  C. 

If you see a square:
respond with the letter  M  only if the triangle is in the middle. 

DO NOT press anything if the triangle is positioned on the right.",1,0,80,73,1,79,0.245
,,,,,,,,,,circle.jpg,-0.1,0,c,024,2019-06-09_17h27.54.339,Primed GoNogo,3.0.4,60,,,,,,,,,,,,,,,,,c,1,1,0,2,1,1,1,conditionsMaster2.csv,1,0,3,1,1,2,conditionsFile1.csv,1,0,1,0,1,0,conditions1.csv,"If you see a circle: 
always respond with the letter  C. 

If you see a square:
respond with the letter  M  only if the triangle is in the middle. 

DO NOT press anything if the triangle is positioned on the right.",1,0,80,39,1,79,0.112
,,,,,,,,,,square.jpg,0,0,m,024,2019-06-09_17h27.54.339,Primed GoNogo,3.0.4,60,,,,,,,,,,,,,,,,,m,1,1,0,2,1,1,1,conditionsMaster2.csv,1,0,3,1,1,2,conditionsFile1.csv,1,0,1,0,1,0,conditions1.csv,"If you see a circle: 
always respond with the letter  C. 

If you see a square:
respond with the letter  M  only if the triangle is in the middle. 

DO NOT press anything if the triangle is positioned on the right.",1,0,80,34,1,79,0.115
,,,,,,,,,,circle.jpg,0,0,c,024,2019-06-09_17h27.54.339,Primed GoNogo,3.0.4,60,,,,,,,,,,,,,,,,,c,1,1,0,2,1,1,1,conditionsMaster2.csv,1,0,3,1,1,2,conditionsFile1.csv,1,0,1,0,1,0,conditions1.csv,"If you see a circle: 
always respond with the letter  C. 

If you see a square:
respond with the letter  M  only if the triangle is in the middle. 

DO NOT press anything if the triangle is positioned on the right.",1,0,80,38,1,79,0.213
,,,,,,,,,,circle.jpg,0,0,c,024,2019-06-09_17h27.54.339,Primed GoNogo,3.0.4,60,,,,,,,,,,,,,,,,,c,1,1,0,2,1,1,1,conditionsMaster2.csv,1,0,3,1,1,2,conditionsFile1.csv,1,0,1,0,1,0,conditions1.csv,"If you see a circle: 
always respond with the letter  C. 

If you see a square:
respond with the letter  M  only if the triangle is in the middle. 

DO NOT press anything if the triangle is positioned on the right.",1,0,80,45,1,79,0.196
,,,,,,,,,,square.jpg,0,0,m,024,2019-06-09_17h27.54.339,Primed GoNogo,3.0.4,60,,,,,,,,,,,,,,,,,m,1,1,0,2,1,1,1,conditionsMaster2.csv,1,0,3,1,1,2,conditionsFile1.csv,1,0,1,0,1,0,conditions1.csv,"If you see a circle: 
always respond with the letter  C. 

If you see a square:
respond with the letter  M  only if the triangle is in the middle. 

DO NOT press anything if the triangle is positioned on the right.",1,0,80,58,1,79,0.392
,,,,,,,,,,square.jpg,0,0,m,024,2019-06-09_17h27.54.339,Primed GoNogo,3.0.4,60,,,,,,,,,,,,,,,,,m,1,1,0,2,1,1,1,conditionsMaster2.csv,1,0,3,1,1,2,conditionsFile1.csv,1,0,1,0,1,0,conditions1.csv,"If you see a circle: 
always respond with the letter  C. 

If you see a square:
respond with the letter  M  only if the triangle is in the middle. 

DO NOT press anything if the triangle is positioned on the right.",1,0,80,24,1,79,0.262
,,,,,,,,,,square.jpg,0.1,0,none,024,2019-06-09_17h27.54.339,Primed GoNogo,3.0.4,60,,,,,,,,,,,,,,,,,m,0,1,0,2,1,1,1,conditionsMaster2.csv,1,0,3,1,1,2,conditionsFile1.csv,1,0,1,0,1,0,conditions1.csv,"If you see a circle: 
always respond with the letter  C. 

If you see a square:
respond with the letter  M  only if the triangle is in the middle. 

DO NOT press anything if the triangle is positioned on the right.",1,0,80,75,1,79,0.278
,,,,,,,,,,square.jpg,0.1,0,none,024,2019-06-09_17h27.54.339,Primed GoNogo,3.0.4,60,,,,,,,,,,,,,,,m,0.826,,1,1,0,2,1,1,1,conditionsMaster2.csv,1,0,3,1,1,2,conditionsFile1.csv,1,0,1,0,1,0,conditions1.csv,"If you see a circle: 
always respond with the letter  C. 

If you see a square:
respond with the letter  M  only if the triangle is in the middle. 

DO NOT press anything if the triangle is positioned on the right.",1,0,80,51,1,79,
,,,,,,,,,,circle.jpg,0,0,c,024,2019-06-09_17h27.54.339,Primed GoNogo,3.0.4,60,,,,,,,,,,,,,,,,,c,1,1,0,2,1,1,1,conditionsMaster2.csv,1,0,3,1,1,2,conditionsFile1.csv,1,0,1,0,1,0,conditions1.csv,"If you see a circle: 
always respond with the letter  C. 

If you see a square:
respond with the letter  M  only if the triangle is in the middle. 

DO NOT press anything if the triangle is positioned on the right.",1,0,80,69,1,79,0.182
,,,,,,,,,,circle.jpg,0,0,c,024,2019-06-09_17h27.54.339,Primed GoNogo,3.0.4,60,,,,,,,,,,,,,,,,,c,1,1,0,2,1,1,1,conditionsMaster2.csv,1,0,3,1,1,2,conditionsFile1.csv,1,0,1,0,1,0,conditions1.csv,"If you see a circle: 
always respond with the letter  C. 

If you see a square:
respond with the letter  M  only if the triangle is in the middle. 

DO NOT press anything if the triangle is positioned on the right.",1,0,80,60,1,79,0.067
,,,,,,,,,,circle.jpg,0,0,c,024,2019-06-09_17h27.54.339,Primed GoNogo,3.0.4,60,,,,,,,,,,,,,,,,,c,1,1,0,2,1,1,1,conditionsMaster2.csv,1,0,3,1,1,2,conditionsFile1.csv,1,0,1,0,1,0,conditions1.csv,"If you see a circle: 
always respond with the letter  C. 

If you see a square:
respond with the letter  M  only if the triangle is in the middle. 

DO NOT press anything if the triangle is positioned on the right.",1,0,80,4,1,79,0.181
,,,,,,,,,,circle.jpg,0,0,c,024,2019-06-09_17h27.54.339,Primed GoNogo,3.0.4,60,,,,,,,,,,,,,,,,,c,1,1,0,2,1,1,1,conditionsMaster2.csv,1,0,3,1,1,2,conditionsFile1.csv,1,0,1,0,1,0,conditions1.csv,"If you see a circle: 
always respond with the letter  C. 

If you see a square:
respond with the letter  M  only if the triangle is in the middle. 

DO NOT press anything if the triangle is positioned on the right.",1,0,80,20,1,79,0.196
,,,,,,,,,,square.jpg,0,0,m,024,2019-06-09_17h27.54.339,Primed GoNogo,3.0.4,60,,,,,,,,,,,,,,,,,m,1,1,0,2,1,1,1,conditionsMaster2.csv,1,0,3,1,1,2,conditionsFile1.csv,1,0,1,0,1,0,conditions1.csv,"If you see a circle: 
always respond with the letter  C. 

If you see a square:
respond with the letter  M  only if the triangle is in the middle. 

DO NOT press anything if the triangle is positioned on the right.",1,0,80,32,1,79,0.165
,,,,,,,,,,square.jpg,0,0,m,024,2019-06-09_17h27.54.339,Primed GoNogo,3.0.4,60,,,,,,,,,,,,,,,,,m,1,1,0,2,1,1,1,conditionsMaster2.csv,1,0,3,1,1,2,conditionsFile1.csv,1,0,1,0,1,0,conditions1.csv,"If you see a circle: 
always respond with the letter  C. 

If you see a square:
respond with the letter  M  only if the triangle is in the middle. 

DO NOT press anything if the triangle is positioned on the right.",1,0,80,72,1,79,0.164
,,,,,,,,,,circle.jpg,0,0,c,024,2019-06-09_17h27.54.339,Primed GoNogo,3.0.4,60,,,,,,,,,,,,,,,,,c,1,1,0,2,1,1,1,conditionsMaster2.csv,1,0,3,1,1,2,conditionsFile1.csv,1,0,1,0,1,0,conditions1.csv,"If you see a circle: 
always respond with the letter  C. 

If you see a square:
respond with the letter  M  only if the triangle is in the middle. 

DO NOT press anything if the triangle is positioned on the right.",1,0,80,37,1,79,0.169
,,,,,,,,,,square.jpg,0.1,0,none,024,2019-06-09_17h27.54.339,Primed GoNogo,3.0.4,60,,,,,,,,,,,,,,,,,m,0,1,0,2,1,1,1,conditionsMaster2.csv,1,0,3,1,1,2,conditionsFile1.csv,1,0,1,0,1,0,conditions1.csv,"If you see a circle: 
always respond with the letter  C. 

If you see a square:
respond with the letter  M  only if the triangle is in the middle. 

DO NOT press anything if the triangle is positioned on the right.",1,0,80,27,1,79,0.247
,,,,,,,,,,square.jpg,0.1,0,none,024,2019-06-09_17h27.54.339,Primed GoNogo,3.0.4,60,,,,,,,,,,,,,,,,,,1,1,0,2,1,1,1,conditionsMaster2.csv,1,0,3,1,1,2,conditionsFile1.csv,1,0,1,0,1,0,conditions1.csv,"If you see a circle: 
always respond with the letter  C. 

If you see a square:
respond with the letter  M  only if the triangle is in the middle. 

DO NOT press anything if the triangle is positioned on the right.",1,0,80,59,1,79,
,,,,,,,,,,square.jpg,0.1,0,none,024,2019-06-09_17h27.54.339,Primed GoNogo,3.0.4,60,,,,,,,,,,,,,,,c,0.347,,1,1,0,2,1,1,1,conditionsMaster2.csv,1,0,3,1,1,2,conditionsFile1.csv,1,0,1,0,1,0,conditions1.csv,"If you see a circle: 
always respond with the letter  C. 

If you see a square:
respond with the letter  M  only if the triangle is in the middle. 

DO NOT press anything if the triangle is positioned on the right.",1,0,80,67,1,79,
,,,,,,,,,,circle.jpg,0,0,c,024,2019-06-09_17h27.54.339,Primed GoNogo,3.0.4,60,,,,,,,,,,,,,,,,,,0,1,0,2,1,1,1,conditionsMaster2.csv,1,0,3,1,1,2,conditionsFile1.csv,1,0,1,0,1,0,conditions1.csv,"If you see a circle: 
always respond with the letter  C. 

If you see a square:
respond with the letter  M  only if the triangle is in the middle. 

DO NOT press anything if the triangle is positioned on the right.",1,0,80,54,1,79,
,,,,,,,,,,circle.jpg,0,0,c,024,2019-06-09_17h27.54.339,Primed GoNogo,3.0.4,60,,,,,,,,,,,,,,,m,0.776,,0,1,0,2,1,1,1,conditionsMaster2.csv,1,0,3,1,1,2,conditionsFile1.csv,1,0,1,0,1,0,conditions1.csv,"If you see a circle: 
always respond with the letter  C. 

If you see a square:
respond with the letter  M  only if the triangle is in the middle. 

DO NOT press anything if the triangle is positioned on the right.",1,0,80,36,1,79,
,,,,,,,,,,circle.jpg,0,0,c,024,2019-06-09_17h27.54.339,Primed GoNogo,3.0.4,60,,,,,,,,,,,,,,,,,c,1,1,0,2,1,1,1,conditionsMaster2.csv,1,0,3,1,1,2,conditionsFile1.csv,1,0,1,0,1,0,conditions1.csv,"If you see a circle: 
always respond with the letter  C. 

If you see a square:
respond with the letter  M  only if the triangle is in the middle. 

DO NOT press anything if the triangle is positioned on the right.",1,0,80,6,1,79,0.177
,,,,,,,,,,circle.jpg,0,0,c,024,2019-06-09_17h27.54.339,Primed GoNogo,3.0.4,60,,,,,,,,,,,,,,,,,,0,1,0,2,1,1,1,conditionsMaster2.csv,1,0,3,1,1,2,conditionsFile1.csv,1,0,1,0,1,0,conditions1.csv,"If you see a circle: 
always respond with the letter  C. 

If you see a square:
respond with the letter  M  only if the triangle is in the middle. 

DO NOT press anything if the triangle is positioned on the right.",1,0,80,78,1,79,
,,,,,,,,,,square.jpg,0,0,m,024,2019-06-09_17h27.54.339,Primed GoNogo,3.0.4,60,,,,,,,,,,,,,,,,,m,1,1,0,2,1,1,1,conditionsMaster2.csv,1,0,3,1,1,2,conditionsFile1.csv,1,0,1,0,1,0,conditions1.csv,"If you see a circle: 
always respond with the letter  C. 

If you see a square:
respond with the letter  M  only if the triangle is in the middle. 

DO NOT press anything if the triangle is positioned on the right.",1,0,80,9,1,79,0.213
,,,,,,,,,,circle.jpg,-0.1,0,c,024,2019-06-09_17h27.54.339,Primed GoNogo,3.0.4,60,,,,,,,,,,,,,,,,,,0,1,0,2,1,1,1,conditionsMaster2.csv,1,0,3,1,1,2,conditionsFile1.csv,1,0,1,0,1,0,conditions1.csv,"If you see a circle: 
always respond with the letter  C. 

If you see a square:
respond with the letter  M  only if the triangle is in the middle. 

DO NOT press anything if the triangle is positioned on the right.",1,0,80,71,1,79,
,,,,,,,,,,circle.jpg,0,0,c,024,2019-06-09_17h27.54.339,Primed GoNogo,3.0.4,60,,,,,,,,,,,,,,,,,c,1,1,0,2,1,1,1,conditionsMaster2.csv,1,0,3,1,1,2,conditionsFile1.csv,1,0,1,0,1,0,conditions1.csv,"If you see a circle: 
always respond with the letter  C. 

If you see a square:
respond with the letter  M  only if the triangle is in the middle. 

DO NOT press anything if the triangle is positioned on the right.",1,0,80,77,1,79,0.046
,,,,,,,,,,square.jpg,0,0,m,024,2019-06-09_17h27.54.339,Primed GoNogo,3.0.4,60,,,,,,,,,,,,,,,,,m,1,1,0,2,1,1,1,conditionsMaster2.csv,1,0,3,1,1,2,conditionsFile1.csv,1,0,1,0,1,0,conditions1.csv,"If you see a circle: 
always respond with the letter  C. 

If you see a square:
respond with the letter  M  only if the triangle is in the middle. 

DO NOT press anything if the triangle is positioned on the right.",1,0,80,2,1,79,0.079
,,,,,,,,,,circle.jpg,0,0,c,024,2019-06-09_17h27.54.339,Primed GoNogo,3.0.4,60,,,,,,,,,,,,,,,c,0.759,,0,1,0,2,1,1,1,conditionsMaster2.csv,1,0,3,1,1,2,conditionsFile1.csv,1,0,1,0,1,0,conditions1.csv,"If you see a circle: 
always respond with the letter  C. 

If you see a square:
respond with the letter  M  only if the triangle is in the middle. 

DO NOT press anything if the triangle is positioned on the right.",1,0,80,76,1,79,
,,,,,,,,,,circle.jpg,0,0,c,024,2019-06-09_17h27.54.339,Primed GoNogo,3.0.4,60,,,,,,,,,,,,,,,,,,0,1,0,2,1,1,1,conditionsMaster2.csv,1,0,3,1,1,2,conditionsFile1.csv,1,0,1,0,1,0,conditions1.csv,"If you see a circle: 
always respond with the letter  C. 

If you see a square:
respond with the letter  M  only if the triangle is in the middle. 

DO NOT press anything if the triangle is positioned on the right.",1,0,80,46,1,79,
,,,,,,,,,,square.jpg,0,0,m,024,2019-06-09_17h27.54.339,Primed GoNogo,3.0.4,60,,,,,,,,,,,,,,,,,m,1,1,0,2,1,1,1,conditionsMaster2.csv,1,0,3,1,1,2,conditionsFile1.csv,1,0,1,0,1,0,conditions1.csv,"If you see a circle: 
always respond with the letter  C. 

If you see a square:
respond with the letter  M  only if the triangle is in the middle. 

DO NOT press anything if the triangle is positioned on the right.",1,0,80,0,1,79,0.116
,,,,,,,,,,circle.jpg,0,0,c,024,2019-06-09_17h27.54.339,Primed GoNogo,3.0.4,60,,,,,,,,,,,,,,,c,0.91,,0,1,0,2,1,1,1,conditionsMaster2.csv,1,0,3,1,1,2,conditionsFile1.csv,1,0,1,0,1,0,conditions1.csv,"If you see a circle: 
always respond with the letter  C. 

If you see a square:
respond with the letter  M  only if the triangle is in the middle. 

DO NOT press anything if the triangle is positioned on the right.",1,0,80,30,1,79,
,,,,,,,,,,square.jpg,0,0,m,024,2019-06-09_17h27.54.339,Primed GoNogo,3.0.4,60,,,,,,,,,,,,,,,c,0.479,,0,1,0,2,1,1,1,conditionsMaster2.csv,1,0,3,1,1,2,conditionsFile1.csv,1,0,1,0,1,0,conditions1.csv,"If you see a circle: 
always respond with the letter  C. 

If you see a square:
respond with the letter  M  only if the triangle is in the middle. 

DO NOT press anything if the triangle is positioned on the right.",1,0,80,57,1,79,
,,,,,,,,,,square.jpg,0,0,m,024,2019-06-09_17h27.54.339,Primed GoNogo,3.0.4,60,,,,,,,,,,,,,,,,,m,1,1,0,2,1,1,1,conditionsMaster2.csv,1,0,3,1,1,2,conditionsFile1.csv,1,0,1,0,1,0,conditions1.csv,"If you see a circle: 
always respond with the letter  C. 

If you see a square:
respond with the letter  M  only if the triangle is in the middle. 

DO NOT press anything if the triangle is positioned on the right.",1,0,80,42,1,79,0.196
,,,,,,,,,,square.jpg,0,0,m,024,2019-06-09_17h27.54.339,Primed GoNogo,3.0.4,60,,,,,,,,,,,,,,,,,m,1,1,0,2,1,1,1,conditionsMaster2.csv,1,0,3,1,1,2,conditionsFile1.csv,1,0,1,0,1,0,conditions1.csv,"If you see a circle: 
always respond with the letter  C. 

If you see a square:
respond with the letter  M  only if the triangle is in the middle. 

DO NOT press anything if the triangle is positioned on the right.",1,0,80,66,1,79,0.232
,,,,,,,,,,square.jpg,0,0,m,024,2019-06-09_17h27.54.339,Primed GoNogo,3.0.4,60,,,,,,,,,,,,,,,,,m,1,1,0,2,1,1,1,conditionsMaster2.csv,1,0,3,1,1,2,conditionsFile1.csv,1,0,1,0,1,0,conditions1.csv,"If you see a circle: 
always respond with the letter  C. 

If you see a square:
respond with the letter  M  only if the triangle is in the middle. 

DO NOT press anything if the triangle is positioned on the right.",1,0,80,74,1,79,0.246
,,,,,,,,,,square.jpg,0,0,m,024,2019-06-09_17h27.54.339,Primed GoNogo,3.0.4,60,,,,,,,,,,,,,,,,,m,1,1,0,2,1,1,1,conditionsMaster2.csv,1,0,3,1,1,2,conditionsFile1.csv,1,0,1,0,1,0,conditions1.csv,"If you see a circle: 
always respond with the letter  C. 

If you see a square:
respond with the letter  M  only if the triangle is in the middle. 

DO NOT press anything if the triangle is positioned on the right.",1,0,80,17,1,79,0.195
,,,,,,,,,,circle.jpg,0,0,c,024,2019-06-09_17h27.54.339,Primed GoNogo,3.0.4,60,,,,,,,,,,,,,,,,,c,1,1,0,2,1,1,1,conditionsMaster2.csv,1,0,3,1,1,2,conditionsFile1.csv,1,0,1,0,1,0,conditions1.csv,"If you see a circle: 
always respond with the letter  C. 

If you see a square:
respond with the letter  M  only if the triangle is in the middle. 

DO NOT press anything if the triangle is positioned on the right.",1,0,80,70,1,79,0.15
,,,,,,,,,,circle.jpg,0,0,c,024,2019-06-09_17h27.54.339,Primed GoNogo,3.0.4,60,,,,,,,,,,,,,,,,,c,1,1,0,2,1,1,1,conditionsMaster2.csv,1,0,3,1,1,2,conditionsFile1.csv,1,0,1,0,1,0,conditions1.csv,"If you see a circle: 
always respond with the letter  C. 

If you see a square:
respond with the letter  M  only if the triangle is in the middle. 

DO NOT press anything if the triangle is positioned on the right.",1,0,80,53,1,79,0.012
,,,,,,,,,,circle.jpg,-0.1,0,c,024,2019-06-09_17h27.54.339,Primed GoNogo,3.0.4,60,,,,,,,,,,,,,,,,,c,1,1,0,2,1,1,1,conditionsMaster2.csv,1,0,3,1,1,2,conditionsFile1.csv,1,0,1,0,1,0,conditions1.csv,"If you see a circle: 
always respond with the letter  C. 

If you see a square:
respond with the letter  M  only if the triangle is in the middle. 

DO NOT press anything if the triangle is positioned on the right.",1,0,80,63,1,79,0.231
,,,,,,,,,,,,,,024,2019-06-09_17h27.54.339,Primed GoNogo,3.0.4,60,,,,,,,,,,,,,,,,,,,1,0,2,1,1,1,conditionsMaster2.csv,1,0,3,1,1,2,conditionsFile1.csv,1,0,1,0,1,0,conditions1.csv,"If you see a circle: 
always respond with the letter  C. 

If you see a square:
respond with the letter  M  only if the triangle is in the middle. 

DO NOT press anything if the triangle is positioned on the right.",,,,,,,
,,,,,,,,,,,,,,024,2019-06-09_17h27.54.339,Primed GoNogo,3.0.4,60,,,,,,,,,,,,,,,,,,,1,0,2,1,1,1,conditionsMaster2.csv,1,0,3,1,1,2,conditionsFile1.csv,,,,,,,,,,,,,,,
,,,,,,,,,,square.jpg,0.1,0,m,024,2019-06-09_17h27.54.339,Primed GoNogo,3.0.4,60,,,,,,,,,,,,,,,,,,0,1,0,2,1,1,1,conditionsMaster2.csv,1,0,3,2,1,2,conditionsFile2.csv,1,0,1,0,1,0,conditions2.csv,"If you see a circle: 
respond with the letter  C   only if the triangle is in the middle. 

DO NOT press anything if the triangle is positioned on the left.
 

If you see a square:
Always respond with the letter  M   
",1,0,80,59,1,79,
,,,,,,,,,,square.jpg,0,0,m,024,2019-06-09_17h27.54.339,Primed GoNogo,3.0.4,60,,,,,,,,,,,,,,,,,m,1,1,0,2,1,1,1,conditionsMaster2.csv,1,0,3,2,1,2,conditionsFile2.csv,1,0,1,0,1,0,conditions2.csv,"If you see a circle: 
respond with the letter  C   only if the triangle is in the middle. 

DO NOT press anything if the triangle is positioned on the left.
 

If you see a square:
Always respond with the letter  M   
",1,0,80,65,1,79,0.029
,,,,,,,,,,circle.jpg,-0.1,0,none,024,2019-06-09_17h27.54.339,Primed GoNogo,3.0.4,60,,,,,,,,,,,,,,,c,0.657,,1,1,0,2,1,1,1,conditionsMaster2.csv,1,0,3,2,1,2,conditionsFile2.csv,1,0,1,0,1,0,conditions2.csv,"If you see a circle: 
respond with the letter  C   only if the triangle is in the middle. 

DO NOT press anything if the triangle is positioned on the left.
 

If you see a square:
Always respond with the letter  M   
",1,0,80,79,1,79,
,,,,,,,,,,square.jpg,0,0,m,024,2019-06-09_17h27.54.339,Primed GoNogo,3.0.4,60,,,,,,,,,,,,,,,m,0.458,,0,1,0,2,1,1,1,conditionsMaster2.csv,1,0,3,2,1,2,conditionsFile2.csv,1,0,1,0,1,0,conditions2.csv,"If you see a circle: 
respond with the letter  C   only if the triangle is in the middle. 

DO NOT press anything if the triangle is positioned on the left.
 

If you see a square:
Always respond with the letter  M   
",1,0,80,64,1,79,
,,,,,,,,,,circle.jpg,0,0,c,024,2019-06-09_17h27.54.339,Primed GoNogo,3.0.4,60,,,,,,,,,,,,,,,,,c,1,1,0,2,1,1,1,conditionsMaster2.csv,1,0,3,2,1,2,conditionsFile2.csv,1,0,1,0,1,0,conditions2.csv,"If you see a circle: 
respond with the letter  C   only if the triangle is in the middle. 

DO NOT press anything if the triangle is positioned on the left.
 

If you see a square:
Always respond with the letter  M   
",1,0,80,4,1,79,0.28
,,,,,,,,,,circle.jpg,0,0,c,024,2019-06-09_17h27.54.339,Primed GoNogo,3.0.4,60,,,,,,,,,,,,,,,,,c,1,1,0,2,1,1,1,conditionsMaster2.csv,1,0,3,2,1,2,conditionsFile2.csv,1,0,1,0,1,0,conditions2.csv,"If you see a circle: 
respond with the letter  C   only if the triangle is in the middle. 

DO NOT press anything if the triangle is positioned on the left.
 

If you see a square:
Always respond with the letter  M   
",1,0,80,44,1,79,0.231
,,,,,,,,,,square.jpg,0,0,m,024,2019-06-09_17h27.54.339,Primed GoNogo,3.0.4,60,,,,,,,,,,,,,,,,,m,1,1,0,2,1,1,1,conditionsMaster2.csv,1,0,3,2,1,2,conditionsFile2.csv,1,0,1,0,1,0,conditions2.csv,"If you see a circle: 
respond with the letter  C   only if the triangle is in the middle. 

DO NOT press anything if the triangle is positioned on the left.
 

If you see a square:
Always respond with the letter  M   
",1,0,80,17,1,79,0.044
,,,,,,,,,,circle.jpg,0,0,c,024,2019-06-09_17h27.54.339,Primed GoNogo,3.0.4,60,,,,,,,,,,,,,,,,,c,1,1,0,2,1,1,1,conditionsMaster2.csv,1,0,3,2,1,2,conditionsFile2.csv,1,0,1,0,1,0,conditions2.csv,"If you see a circle: 
respond with the letter  C   only if the triangle is in the middle. 

DO NOT press anything if the triangle is positioned on the left.
 

If you see a square:
Always respond with the letter  M   
",1,0,80,45,1,79,0.049
,,,,,,,,,,square.jpg,0,0,m,024,2019-06-09_17h27.54.339,Primed GoNogo,3.0.4,60,,,,,,,,,,,,,,,,,m,1,1,0,2,1,1,1,conditionsMaster2.csv,1,0,3,2,1,2,conditionsFile2.csv,1,0,1,0,1,0,conditions2.csv,"If you see a circle: 
respond with the letter  C   only if the triangle is in the middle. 

DO NOT press anything if the triangle is positioned on the left.
 

If you see a square:
Always respond with the letter  M   
",1,0,80,56,1,79,0.145
,,,,,,,,,,circle.jpg,-0.1,0,none,024,2019-06-09_17h27.54.339,Primed GoNogo,3.0.4,60,,,,,,,,,,,,,,,,,c,0,1,0,2,1,1,1,conditionsMaster2.csv,1,0,3,2,1,2,conditionsFile2.csv,1,0,1,0,1,0,conditions2.csv,"If you see a circle: 
respond with the letter  C   only if the triangle is in the middle. 

DO NOT press anything if the triangle is positioned on the left.
 

If you see a square:
Always respond with the letter  M   
",1,0,80,63,1,79,0.062
,,,,,,,,,,circle.jpg,-0.1,0,none,024,2019-06-09_17h27.54.339,Primed GoNogo,3.0.4,60,,,,,,,,,,,,,,,,,m,0,1,0,2,1,1,1,conditionsMaster2.csv,1,0,3,2,1,2,conditionsFile2.csv,1,0,1,0,1,0,conditions2.csv,"If you see a circle: 
respond with the letter  C   only if the triangle is in the middle. 

DO NOT press anything if the triangle is positioned on the left.
 

If you see a square:
Always respond with the letter  M   
",1,0,80,39,1,79,0.065
,,,,,,,,,,circle.jpg,0,0,c,024,2019-06-09_17h27.54.339,Primed GoNogo,3.0.4,60,,,,,,,,,,,,,,,,,c,1,1,0,2,1,1,1,conditionsMaster2.csv,1,0,3,2,1,2,conditionsFile2.csv,1,0,1,0,1,0,conditions2.csv,"If you see a circle: 
respond with the letter  C   only if the triangle is in the middle. 

DO NOT press anything if the triangle is positioned on the left.
 

If you see a square:
Always respond with the letter  M   
",1,0,80,12,1,79,0.097
,,,,,,,,,,square.jpg,0.1,0,m,024,2019-06-09_17h27.54.339,Primed GoNogo,3.0.4,60,,,,,,,,,,,,,,,,,m,1,1,0,2,1,1,1,conditionsMaster2.csv,1,0,3,2,1,2,conditionsFile2.csv,1,0,1,0,1,0,conditions2.csv,"If you see a circle: 
respond with the letter  C   only if the triangle is in the middle. 

DO NOT press anything if the triangle is positioned on the left.
 

If you see a square:
Always respond with the letter  M   
",1,0,80,43,1,79,0.18
,,,,,,,,,,circle.jpg,0,0,c,024,2019-06-09_17h27.54.339,Primed GoNogo,3.0.4,60,,,,,,,,,,,,,,,,,c,1,1,0,2,1,1,1,conditionsMaster2.csv,1,0,3,2,1,2,conditionsFile2.csv,1,0,1,0,1,0,conditions2.csv,"If you see a circle: 
respond with the letter  C   only if the triangle is in the middle. 

DO NOT press anything if the triangle is positioned on the left.
 

If you see a square:
Always respond with the letter  M   
",1,0,80,37,1,79,0.28
,,,,,,,,,,circle.jpg,0,0,c,024,2019-06-09_17h27.54.339,Primed GoNogo,3.0.4,60,,,,,,,,,,,,,,,,,c,1,1,0,2,1,1,1,conditionsMaster2.csv,1,0,3,2,1,2,conditionsFile2.csv,1,0,1,0,1,0,conditions2.csv,"If you see a circle: 
respond with the letter  C   only if the triangle is in the middle. 

DO NOT press anything if the triangle is positioned on the left.
 

If you see a square:
Always respond with the letter  M   
",1,0,80,30,1,79,0.212
,,,,,,,,,,circle.jpg,0,0,c,024,2019-06-09_17h27.54.339,Primed GoNogo,3.0.4,60,,,,,,,,,,,,,,,,,c,1,1,0,2,1,1,1,conditionsMaster2.csv,1,0,3,2,1,2,conditionsFile2.csv,1,0,1,0,1,0,conditions2.csv,"If you see a circle: 
respond with the letter  C   only if the triangle is in the middle. 

DO NOT press anything if the triangle is positioned on the left.
 

If you see a square:
Always respond with the letter  M   
",1,0,80,13,1,79,0.192
,,,,,,,,,,square.jpg,0,0,m,024,2019-06-09_17h27.54.339,Primed GoNogo,3.0.4,60,,,,,,,,,,,,,,,,,m,1,1,0,2,1,1,1,conditionsMaster2.csv,1,0,3,2,1,2,conditionsFile2.csv,1,0,1,0,1,0,conditions2.csv,"If you see a circle: 
respond with the letter  C   only if the triangle is in the middle. 

DO NOT press anything if the triangle is positioned on the left.
 

If you see a square:
Always respond with the letter  M   
",1,0,80,50,1,79,0.281
,,,,,,,,,,circle.jpg,0,0,c,024,2019-06-09_17h27.54.339,Primed GoNogo,3.0.4,60,,,,,,,,,,,,,,,c,0.212,,0,1,0,2,1,1,1,conditionsMaster2.csv,1,0,3,2,1,2,conditionsFile2.csv,1,0,1,0,1,0,conditions2.csv,"If you see a circle: 
respond with the letter  C   only if the triangle is in the middle. 

DO NOT press anything if the triangle is positioned on the left.
 

If you see a square:
Always respond with the letter  M   
",1,0,80,70,1,79,
,,,,,,,,,,circle.jpg,0,0,c,024,2019-06-09_17h27.54.339,Primed GoNogo,3.0.4,60,,,,,,,,,,,,,,,,,c,1,1,0,2,1,1,1,conditionsMaster2.csv,1,0,3,2,1,2,conditionsFile2.csv,1,0,1,0,1,0,conditions2.csv,"If you see a circle: 
respond with the letter  C   only if the triangle is in the middle. 

DO NOT press anything if the triangle is positioned on the left.
 

If you see a square:
Always respond with the letter  M   
",1,0,80,22,1,79,0.145
,,,,,,,,,,circle.jpg,0,0,c,024,2019-06-09_17h27.54.339,Primed GoNogo,3.0.4,60,,,,,,,,,,,,,,,,,c,1,1,0,2,1,1,1,conditionsMaster2.csv,1,0,3,2,1,2,conditionsFile2.csv,1,0,1,0,1,0,conditions2.csv,"If you see a circle: 
respond with the letter  C   only if the triangle is in the middle. 

DO NOT press anything if the triangle is positioned on the left.
 

If you see a square:
Always respond with the letter  M   
",1,0,80,60,1,79,0.231
,,,,,,,,,,circle.jpg,0,0,c,024,2019-06-09_17h27.54.339,Primed GoNogo,3.0.4,60,,,,,,,,,,,,,,,,,c,1,1,0,2,1,1,1,conditionsMaster2.csv,1,0,3,2,1,2,conditionsFile2.csv,1,0,1,0,1,0,conditions2.csv,"If you see a circle: 
respond with the letter  C   only if the triangle is in the middle. 

DO NOT press anything if the triangle is positioned on the left.
 

If you see a square:
Always respond with the letter  M   
",1,0,80,76,1,79,0.214
,,,,,,,,,,square.jpg,0,0,m,024,2019-06-09_17h27.54.339,Primed GoNogo,3.0.4,60,,,,,,,,,,,,,,,,,m,1,1,0,2,1,1,1,conditionsMaster2.csv,1,0,3,2,1,2,conditionsFile2.csv,1,0,1,0,1,0,conditions2.csv,"If you see a circle: 
respond with the letter  C   only if the triangle is in the middle. 

DO NOT press anything if the triangle is positioned on the left.
 

If you see a square:
Always respond with the letter  M   
",1,0,80,8,1,79,0.099
,,,,,,,,,,circle.jpg,-0.1,0,none,024,2019-06-09_17h27.54.339,Primed GoNogo,3.0.4,60,,,,,,,,,,,,,,,,,c,0,1,0,2,1,1,1,conditionsMaster2.csv,1,0,3,2,1,2,conditionsFile2.csv,1,0,1,0,1,0,conditions2.csv,"If you see a circle: 
respond with the letter  C   only if the triangle is in the middle. 

DO NOT press anything if the triangle is positioned on the left.
 

If you see a square:
Always respond with the letter  M   
",1,0,80,23,1,79,0.132
,,,,,,,,,,square.jpg,0,0,m,024,2019-06-09_17h27.54.339,Primed GoNogo,3.0.4,60,,,,,,,,,,,,,,,,,m,1,1,0,2,1,1,1,conditionsMaster2.csv,1,0,3,2,1,2,conditionsFile2.csv,1,0,1,0,1,0,conditions2.csv,"If you see a circle: 
respond with the letter  C   only if the triangle is in the middle. 

DO NOT press anything if the triangle is positioned on the left.
 

If you see a square:
Always respond with the letter  M   
",1,0,80,33,1,79,0.081
,,,,,,,,,,circle.jpg,0,0,c,024,2019-06-09_17h27.54.339,Primed GoNogo,3.0.4,60,,,,,,,,,,,,,,,,,c,1,1,0,2,1,1,1,conditionsMaster2.csv,1,0,3,2,1,2,conditionsFile2.csv,1,0,1,0,1,0,conditions2.csv,"If you see a circle: 
respond with the letter  C   only if the triangle is in the middle. 

DO NOT press anything if the triangle is positioned on the left.
 

If you see a square:
Always respond with the letter  M   
",1,0,80,78,1,79,0.097
,,,,,,,,,,square.jpg,0,0,m,024,2019-06-09_17h27.54.339,Primed GoNogo,3.0.4,60,,,,,,,,,,,,,,,,,m,1,1,0,2,1,1,1,conditionsMaster2.csv,1,0,3,2,1,2,conditionsFile2.csv,1,0,1,0,1,0,conditions2.csv,"If you see a circle: 
respond with the letter  C   only if the triangle is in the middle. 

DO NOT press anything if the triangle is positioned on the left.
 

If you see a square:
Always respond with the letter  M   
",1,0,80,0,1,79,0.348
,,,,,,,,,,square.jpg,0.1,0,m,024,2019-06-09_17h27.54.339,Primed GoNogo,3.0.4,60,,,,,,,,,,,,,,,,,m,1,1,0,2,1,1,1,conditionsMaster2.csv,1,0,3,2,1,2,conditionsFile2.csv,1,0,1,0,1,0,conditions2.csv,"If you see a circle: 
respond with the letter  C   only if the triangle is in the middle. 

DO NOT press anything if the triangle is positioned on the left.
 

If you see a square:
Always respond with the letter  M   
",1,0,80,27,1,79,0.191
,,,,,,,,,,square.jpg,0,0,m,024,2019-06-09_17h27.54.339,Primed GoNogo,3.0.4,60,,,,,,,,,,,,,,,,,m,1,1,0,2,1,1,1,conditionsMaster2.csv,1,0,3,2,1,2,conditionsFile2.csv,1,0,1,0,1,0,conditions2.csv,"If you see a circle: 
respond with the letter  C   only if the triangle is in the middle. 

DO NOT press anything if the triangle is positioned on the left.
 

If you see a square:
Always respond with the letter  M   
",1,0,80,16,1,79,0.161
,,,,,,,,,,circle.jpg,0,0,c,024,2019-06-09_17h27.54.339,Primed GoNogo,3.0.4,60,,,,,,,,,,,,,,,,,c,1,1,0,2,1,1,1,conditionsMaster2.csv,1,0,3,2,1,2,conditionsFile2.csv,1,0,1,0,1,0,conditions2.csv,"If you see a circle: 
respond with the letter  C   only if the triangle is in the middle. 

DO NOT press anything if the triangle is positioned on the left.
 

If you see a square:
Always respond with the letter  M   
",1,0,80,21,1,79,0.144
,,,,,,,,,,circle.jpg,0,0,c,024,2019-06-09_17h27.54.339,Primed GoNogo,3.0.4,60,,,,,,,,,,,,,,,,,c,1,1,0,2,1,1,1,conditionsMaster2.csv,1,0,3,2,1,2,conditionsFile2.csv,1,0,1,0,1,0,conditions2.csv,"If you see a circle: 
respond with the letter  C   only if the triangle is in the middle. 

DO NOT press anything if the triangle is positioned on the left.
 

If you see a square:
Always respond with the letter  M   
",1,0,80,20,1,79,0.227
,,,,,,,,,,circle.jpg,0,0,c,024,2019-06-09_17h27.54.339,Primed GoNogo,3.0.4,60,,,,,,,,,,,,,,,,,c,1,1,0,2,1,1,1,conditionsMaster2.csv,1,0,3,2,1,2,conditionsFile2.csv,1,0,1,0,1,0,conditions2.csv,"If you see a circle: 
respond with the letter  C   only if the triangle is in the middle. 

DO NOT press anything if the triangle is positioned on the left.
 

If you see a square:
Always respond with the letter  M   
",1,0,80,28,1,79,0.198
,,,,,,,,,,square.jpg,0,0,m,024,2019-06-09_17h27.54.339,Primed GoNogo,3.0.4,60,,,,,,,,,,,,,,,,,m,1,1,0,2,1,1,1,conditionsMaster2.csv,1,0,3,2,1,2,conditionsFile2.csv,1,0,1,0,1,0,conditions2.csv,"If you see a circle: 
respond with the letter  C   only if the triangle is in the middle. 

DO NOT press anything if the triangle is positioned on the left.
 

If you see a square:
Always respond with the letter  M   
",1,0,80,26,1,79,0.289
,,,,,,,,,,circle.jpg,0,0,c,024,2019-06-09_17h27.54.339,Primed GoNogo,3.0.4,60,,,,,,,,,,,,,,,,,,0,1,0,2,1,1,1,conditionsMaster2.csv,1,0,3,2,1,2,conditionsFile2.csv,1,0,1,0,1,0,conditions2.csv,"If you see a circle: 
respond with the letter  C   only if the triangle is in the middle. 

DO NOT press anything if the triangle is positioned on the left.
 

If you see a square:
Always respond with the letter  M   
",1,0,80,14,1,79,
,,,,,,,,,,square.jpg,0,0,m,024,2019-06-09_17h27.54.339,Primed GoNogo,3.0.4,60,,,,,,,,,,,,,,,,,m,1,1,0,2,1,1,1,conditionsMaster2.csv,1,0,3,2,1,2,conditionsFile2.csv,1,0,1,0,1,0,conditions2.csv,"If you see a circle: 
respond with the letter  C   only if the triangle is in the middle. 

DO NOT press anything if the triangle is positioned on the left.
 

If you see a square:
Always respond with the letter  M   
",1,0,80,73,1,79,0.066
,,,,,,,,,,circle.jpg,0,0,c,024,2019-06-09_17h27.54.339,Primed GoNogo,3.0.4,60,,,,,,,,,,,,,,,,,c,1,1,0,2,1,1,1,conditionsMaster2.csv,1,0,3,2,1,2,conditionsFile2.csv,1,0,1,0,1,0,conditions2.csv,"If you see a circle: 
respond with the letter  C   only if the triangle is in the middle. 

DO NOT press anything if the triangle is positioned on the left.
 

If you see a square:
Always respond with the letter  M   
",1,0,80,53,1,79,0.196
,,,,,,,,,,circle.jpg,0,0,c,024,2019-06-09_17h27.54.339,Primed GoNogo,3.0.4,60,,,,,,,,,,,,,,,,,m,0,1,0,2,1,1,1,conditionsMaster2.csv,1,0,3,2,1,2,conditionsFile2.csv,1,0,1,0,1,0,conditions2.csv,"If you see a circle: 
respond with the letter  C   only if the triangle is in the middle. 

DO NOT press anything if the triangle is positioned on the left.
 

If you see a square:
Always respond with the letter  M   
",1,0,80,36,1,79,0.097
,,,,,,,,,,square.jpg,0.1,0,m,024,2019-06-09_17h27.54.339,Primed GoNogo,3.0.4,60,,,,,,,,,,,,,,,,,c,0,1,0,2,1,1,1,conditionsMaster2.csv,1,0,3,2,1,2,conditionsFile2.csv,1,0,1,0,1,0,conditions2.csv,"If you see a circle: 
respond with the letter  C   only if the triangle is in the middle. 

DO NOT press anything if the triangle is positioned on the left.
 

If you see a square:
Always respond with the letter  M   
",1,0,80,3,1,79,0.014
,,,,,,,,,,circle.jpg,0,0,c,024,2019-06-09_17h27.54.339,Primed GoNogo,3.0.4,60,,,,,,,,,,,,,,,,,,0,1,0,2,1,1,1,conditionsMaster2.csv,1,0,3,2,1,2,conditionsFile2.csv,1,0,1,0,1,0,conditions2.csv,"If you see a circle: 
respond with the letter  C   only if the triangle is in the middle. 

DO NOT press anything if the triangle is positioned on the left.
 

If you see a square:
Always respond with the letter  M   
",1,0,80,29,1,79,
,,,,,,,,,,square.jpg,0,0,m,024,2019-06-09_17h27.54.339,Primed GoNogo,3.0.4,60,,,,,,,,,,,,,,,,,m,1,1,0,2,1,1,1,conditionsMaster2.csv,1,0,3,2,1,2,conditionsFile2.csv,1,0,1,0,1,0,conditions2.csv,"If you see a circle: 
respond with the letter  C   only if the triangle is in the middle. 

DO NOT press anything if the triangle is positioned on the left.
 

If you see a square:
Always respond with the letter  M   
",1,0,80,66,1,79,0.196
,,,,,,,,,,square.jpg,0,0,m,024,2019-06-09_17h27.54.339,Primed GoNogo,3.0.4,60,,,,,,,,,,,,,,,,,m,1,1,0,2,1,1,1,conditionsMaster2.csv,1,0,3,2,1,2,conditionsFile2.csv,1,0,1,0,1,0,conditions2.csv,"If you see a circle: 
respond with the letter  C   only if the triangle is in the middle. 

DO NOT press anything if the triangle is positioned on the left.
 

If you see a square:
Always respond with the letter  M   
",1,0,80,58,1,79,0.195
,,,,,,,,,,circle.jpg,0,0,c,024,2019-06-09_17h27.54.339,Primed GoNogo,3.0.4,60,,,,,,,,,,,,,,,,,c,1,1,0,2,1,1,1,conditionsMaster2.csv,1,0,3,2,1,2,conditionsFile2.csv,1,0,1,0,1,0,conditions2.csv,"If you see a circle: 
respond with the letter  C   only if the triangle is in the middle. 

DO NOT press anything if the triangle is positioned on the left.
 

If you see a square:
Always respond with the letter  M   
",1,0,80,77,1,79,0.195
,,,,,,,,,,square.jpg,0,0,m,024,2019-06-09_17h27.54.339,Primed GoNogo,3.0.4,60,,,,,,,,,,,,,,,,,m,1,1,0,2,1,1,1,conditionsMaster2.csv,1,0,3,2,1,2,conditionsFile2.csv,1,0,1,0,1,0,conditions2.csv,"If you see a circle: 
respond with the letter  C   only if the triangle is in the middle. 

DO NOT press anything if the triangle is positioned on the left.
 

If you see a square:
Always respond with the letter  M   
",1,0,80,1,1,79,0.064
,,,,,,,,,,square.jpg,0,0,m,024,2019-06-09_17h27.54.339,Primed GoNogo,3.0.4,60,,,,,,,,,,,,,,,,,m,1,1,0,2,1,1,1,conditionsMaster2.csv,1,0,3,2,1,2,conditionsFile2.csv,1,0,1,0,1,0,conditions2.csv,"If you see a circle: 
respond with the letter  C   only if the triangle is in the middle. 

DO NOT press anything if the triangle is positioned on the left.
 

If you see a square:
Always respond with the letter  M   
",1,0,80,41,1,79,0.31
,,,,,,,,,,circle.jpg,0,0,c,024,2019-06-09_17h27.54.339,Primed GoNogo,3.0.4,60,,,,,,,,,,,,,,,,,c,1,1,0,2,1,1,1,conditionsMaster2.csv,1,0,3,2,1,2,conditionsFile2.csv,1,0,1,0,1,0,conditions2.csv,"If you see a circle: 
respond with the letter  C   only if the triangle is in the middle. 

DO NOT press anything if the triangle is positioned on the left.
 

If you see a square:
Always respond with the letter  M   
",1,0,80,69,1,79,0.244
,,,,,,,,,,circle.jpg,0,0,c,024,2019-06-09_17h27.54.339,Primed GoNogo,3.0.4,60,,,,,,,,,,,,,,,,,c,1,1,0,2,1,1,1,conditionsMaster2.csv,1,0,3,2,1,2,conditionsFile2.csv,1,0,1,0,1,0,conditions2.csv,"If you see a circle: 
respond with the letter  C   only if the triangle is in the middle. 

DO NOT press anything if the triangle is positioned on the left.
 

If you see a square:
Always respond with the letter  M   
",1,0,80,68,1,79,0.062
,,,,,,,,,,circle.jpg,-0.1,0,none,024,2019-06-09_17h27.54.339,Primed GoNogo,3.0.4,60,,,,,,,,,,,,,,,,,,1,1,0,2,1,1,1,conditionsMaster2.csv,1,0,3,2,1,2,conditionsFile2.csv,1,0,1,0,1,0,conditions2.csv,"If you see a circle: 
respond with the letter  C   only if the triangle is in the middle. 

DO NOT press anything if the triangle is positioned on the left.
 

If you see a square:
Always respond with the letter  M   
",1,0,80,47,1,79,
,,,,,,,,,,circle.jpg,0,0,c,024,2019-06-09_17h27.54.339,Primed GoNogo,3.0.4,60,,,,,,,,,,,,,,,,,c,1,1,0,2,1,1,1,conditionsMaster2.csv,1,0,3,2,1,2,conditionsFile2.csv,1,0,1,0,1,0,conditions2.csv,"If you see a circle: 
respond with the letter  C   only if the triangle is in the middle. 

DO NOT press anything if the triangle is positioned on the left.
 

If you see a square:
Always respond with the letter  M   
",1,0,80,61,1,79,0.132
,,,,,,,,,,square.jpg,0.1,0,m,024,2019-06-09_17h27.54.339,Primed GoNogo,3.0.4,60,,,,,,,,,,,,,,,,,m,1,1,0,2,1,1,1,conditionsMaster2.csv,1,0,3,2,1,2,conditionsFile2.csv,1,0,1,0,1,0,conditions2.csv,"If you see a circle: 
respond with the letter  C   only if the triangle is in the middle. 

DO NOT press anything if the triangle is positioned on the left.
 

If you see a square:
Always respond with the letter  M   
",1,0,80,11,1,79,0.196
,,,,,,,,,,square.jpg,0.1,0,m,024,2019-06-09_17h27.54.339,Primed GoNogo,3.0.4,60,,,,,,,,,,,,,,,,,m,1,1,0,2,1,1,1,conditionsMaster2.csv,1,0,3,2,1,2,conditionsFile2.csv,1,0,1,0,1,0,conditions2.csv,"If you see a circle: 
respond with the letter  C   only if the triangle is in the middle. 

DO NOT press anything if the triangle is positioned on the left.
 

If you see a square:
Always respond with the letter  M   
",1,0,80,19,1,79,0.314
,,,,,,,,,,square.jpg,0,0,m,024,2019-06-09_17h27.54.339,Primed GoNogo,3.0.4,60,,,,,,,,,,,,,,,,,c,0,1,0,2,1,1,1,conditionsMaster2.csv,1,0,3,2,1,2,conditionsFile2.csv,1,0,1,0,1,0,conditions2.csv,"If you see a circle: 
respond with the letter  C   only if the triangle is in the middle. 

DO NOT press anything if the triangle is positioned on the left.
 

If you see a square:
Always respond with the letter  M   
",1,0,80,18,1,79,0.228
,,,,,,,,,,square.jpg,0,0,m,024,2019-06-09_17h27.54.339,Primed GoNogo,3.0.4,60,,,,,,,,,,,,,,,,,m,1,1,0,2,1,1,1,conditionsMaster2.csv,1,0,3,2,1,2,conditionsFile2.csv,1,0,1,0,1,0,conditions2.csv,"If you see a circle: 
respond with the letter  C   only if the triangle is in the middle. 

DO NOT press anything if the triangle is positioned on the left.
 

If you see a square:
Always respond with the letter  M   
",1,0,80,34,1,79,0.112
,,,,,,,,,,square.jpg,0,0,m,024,2019-06-09_17h27.54.339,Primed GoNogo,3.0.4,60,,,,,,,,,,,,,,,,,m,1,1,0,2,1,1,1,conditionsMaster2.csv,1,0,3,2,1,2,conditionsFile2.csv,1,0,1,0,1,0,conditions2.csv,"If you see a circle: 
respond with the letter  C   only if the triangle is in the middle. 

DO NOT press anything if the triangle is positioned on the left.
 

If you see a square:
Always respond with the letter  M   
",1,0,80,74,1,79,0.277
,,,,,,,,,,square.jpg,0,0,m,024,2019-06-09_17h27.54.339,Primed GoNogo,3.0.4,60,,,,,,,,,,,,,,,m,0.957,,0,1,0,2,1,1,1,conditionsMaster2.csv,1,0,3,2,1,2,conditionsFile2.csv,1,0,1,0,1,0,conditions2.csv,"If you see a circle: 
respond with the letter  C   only if the triangle is in the middle. 

DO NOT press anything if the triangle is positioned on the left.
 

If you see a square:
Always respond with the letter  M   
",1,0,80,10,1,79,
,,,,,,,,,,circle.jpg,0,0,c,024,2019-06-09_17h27.54.339,Primed GoNogo,3.0.4,60,,,,,,,,,,,,,,,,,,0,1,0,2,1,1,1,conditionsMaster2.csv,1,0,3,2,1,2,conditionsFile2.csv,1,0,1,0,1,0,conditions2.csv,"If you see a circle: 
respond with the letter  C   only if the triangle is in the middle. 

DO NOT press anything if the triangle is positioned on the left.
 

If you see a square:
Always respond with the letter  M   
",1,0,80,54,1,79,
,,,,,,,,,,circle.jpg,0,0,c,024,2019-06-09_17h27.54.339,Primed GoNogo,3.0.4,60,,,,,,,,,,,,,,,,,c,1,1,0,2,1,1,1,conditionsMaster2.csv,1,0,3,2,1,2,conditionsFile2.csv,1,0,1,0,1,0,conditions2.csv,"If you see a circle: 
respond with the letter  C   only if the triangle is in the middle. 

DO NOT press anything if the triangle is positioned on the left.
 

If you see a square:
Always respond with the letter  M   
",1,0,80,52,1,79,0.113
,,,,,,,,,,square.jpg,0,0,m,024,2019-06-09_17h27.54.339,Primed GoNogo,3.0.4,60,,,,,,,,,,,,,,,,,m,1,1,0,2,1,1,1,conditionsMaster2.csv,1,0,3,2,1,2,conditionsFile2.csv,1,0,1,0,1,0,conditions2.csv,"If you see a circle: 
respond with the letter  C   only if the triangle is in the middle. 

DO NOT press anything if the triangle is positioned on the left.
 

If you see a square:
Always respond with the letter  M   
",1,0,80,25,1,79,0.281
,,,,,,,,,,square.jpg,0,0,m,024,2019-06-09_17h27.54.339,Primed GoNogo,3.0.4,60,,,,,,,,,,,,,,,,,m,1,1,0,2,1,1,1,conditionsMaster2.csv,1,0,3,2,1,2,conditionsFile2.csv,1,0,1,0,1,0,conditions2.csv,"If you see a circle: 
respond with the letter  C   only if the triangle is in the middle. 

DO NOT press anything if the triangle is positioned on the left.
 

If you see a square:
Always respond with the letter  M   
",1,0,80,42,1,79,0.081
,,,,,,,,,,circle.jpg,-0.1,0,none,024,2019-06-09_17h27.54.339,Primed GoNogo,3.0.4,60,,,,,,,,,,,,,,,,,c,0,1,0,2,1,1,1,conditionsMaster2.csv,1,0,3,2,1,2,conditionsFile2.csv,1,0,1,0,1,0,conditions2.csv,"If you see a circle: 
respond with the letter  C   only if the triangle is in the middle. 

DO NOT press anything if the triangle is positioned on the left.
 

If you see a square:
Always respond with the letter  M   
",1,0,80,7,1,79,0.178
,,,,,,,,,,circle.jpg,0,0,c,024,2019-06-09_17h27.54.339,Primed GoNogo,3.0.4,60,,,,,,,,,,,,,,,,,c,1,1,0,2,1,1,1,conditionsMaster2.csv,1,0,3,2,1,2,conditionsFile2.csv,1,0,1,0,1,0,conditions2.csv,"If you see a circle: 
respond with the letter  C   only if the triangle is in the middle. 

DO NOT press anything if the triangle is positioned on the left.
 

If you see a square:
Always respond with the letter  M   
",1,0,80,38,1,79,0.213
,,,,,,,,,,square.jpg,0,0,m,024,2019-06-09_17h27.54.339,Primed GoNogo,3.0.4,60,,,,,,,,,,,,,,,,,m,1,1,0,2,1,1,1,conditionsMaster2.csv,1,0,3,2,1,2,conditionsFile2.csv,1,0,1,0,1,0,conditions2.csv,"If you see a circle: 
respond with the letter  C   only if the triangle is in the middle. 

DO NOT press anything if the triangle is positioned on the left.
 

If you see a square:
Always respond with the letter  M   
",1,0,80,72,1,79,0.231
,,,,,,,,,,circle.jpg,0,0,c,024,2019-06-09_17h27.54.339,Primed GoNogo,3.0.4,60,,,,,,,,,,,,,,,,,c,1,1,0,2,1,1,1,conditionsMaster2.csv,1,0,3,2,1,2,conditionsFile2.csv,1,0,1,0,1,0,conditions2.csv,"If you see a circle: 
respond with the letter  C   only if the triangle is in the middle. 

DO NOT press anything if the triangle is positioned on the left.
 

If you see a square:
Always respond with the letter  M   
",1,0,80,62,1,79,0.184
