instr_resp.keys,instr_resp.rt,prac_resp.keys,prac_resp.corr,prac_resp.rt,prac_1.thisRepN,prac_1.thisTrialN,prac_1.thisN,prac_1.thisIndex,prac_1.ran,prac_1.order,imageFile,posX,posY,corrAns,*Participant ID ,date,expName,psychopyVersion,frameRate,instr_resp2.keys,instr_resp2.rt,prac_resp2.keys,prac_resp2.corr,prac_resp2.rt,prac_2.thisRepN,prac_2.thisTrialN,prac_2.thisN,prac_2.thisIndex,prac_2.ran,prac_2.order,pover_resp.keys,pover_resp.rt,earlyresp.keys,resp.keys,resp.corr,Groups.thisRepN,Groups.thisTrialN,Groups.thisN,Groups.thisIndex,Groups.ran,Groups.order,countgroups,masterBlock.thisRepN,masterBlock.thisTrialN,masterBlock.thisN,masterBlock.thisIndex,masterBlock.ran,masterBlock.order,masterFile,Block1.thisRepN,Block1.thisTrialN,Block1.thisN,Block1.thisIndex,Block1.ran,Block1.order,condFile,instr,StopSide.thisRepN,StopSide.thisTrialN,StopSide.thisN,StopSide.thisIndex,StopSide.ran,StopSide.order,resp.rt,earlyresp.rt
space,21.475,c,1,0.462,1,0,8,6,1,7,circle.jpg,0,0,c,023,2019-06-09_22h12.34.995,Primed GoNogo,3.0.4,60,,,,,,,,,,,,,,,,,,,,,,,,,,,,,,,,,,,,,,,,,,,,,,
,,,0,,1,0,8,5,1,7,circle.jpg,0,0,c,023,2019-06-09_22h12.34.995,Primed GoNogo,3.0.4,60,,,,,,,,,,,,,,,,,,,,,,,,,,,,,,,,,,,,,,,,,,,,,,
,,,0,,1,0,8,7,1,7,circle.jpg,-0.1,0,c,023,2019-06-09_22h12.34.995,Primed GoNogo,3.0.4,60,,,,,,,,,,,,,,,,,,,,,,,,,,,,,,,,,,,,,,,,,,,,,,
,,,0,,1,0,8,4,1,7,circle.jpg,0,0,c,023,2019-06-09_22h12.34.995,Primed GoNogo,3.0.4,60,,,,,,,,,,,,,,,,,,,,,,,,,,,,,,,,,,,,,,,,,,,,,,
,,,0,,1,0,8,0,1,7,square.jpg,0,0,m,023,2019-06-09_22h12.34.995,Primed GoNogo,3.0.4,60,,,,,,,,,,,,,,,,,,,,,,,,,,,,,,,,,,,,,,,,,,,,,,
,,c,0,0.429,1,0,8,1,1,7,square.jpg,0,0,m,023,2019-06-09_22h12.34.995,Primed GoNogo,3.0.4,60,,,,,,,,,,,,,,,,,,,,,,,,,,,,,,,,,,,,,,,,,,,,,,
,,,1,,1,0,8,3,1,7,square.jpg,0.1,0,none,023,2019-06-09_22h12.34.995,Primed GoNogo,3.0.4,60,,,,,,,,,,,,,,,,,,,,,,,,,,,,,,,,,,,,,,,,,,,,,,
,,,0,,1,0,8,2,1,7,square.jpg,0,0,m,023,2019-06-09_22h12.34.995,Primed GoNogo,3.0.4,60,,,,,,,,,,,,,,,,,,,,,,,,,,,,,,,,,,,,,,,,,,,,,,
,,,,,,,,,,,circle.jpg,0,0,c,023,2019-06-09_22h12.34.995,Primed GoNogo,3.0.4,60,m,0.57,c,1,0.28,1,0,8,6,1,7,,,,,,,,,,,,,,,,,,,,,,,,,,,,,,,,,,,
,,,,,,,,,,,circle.jpg,0,0,c,023,2019-06-09_22h12.34.995,Primed GoNogo,3.0.4,60,,,c,1,0.248,1,0,8,4,1,7,,,,,,,,,,,,,,,,,,,,,,,,,,,,,,,,,,,
,,,,,,,,,,,circle.jpg,0,0,c,023,2019-06-09_22h12.34.995,Primed GoNogo,3.0.4,60,,,c,1,0.479,1,0,8,5,1,7,,,,,,,,,,,,,,,,,,,,,,,,,,,,,,,,,,,
,,,,,,,,,,,square.jpg,0,0,m,023,2019-06-09_22h12.34.995,Primed GoNogo,3.0.4,60,,,m,1,0.347,1,0,8,2,1,7,,,,,,,,,,,,,,,,,,,,,,,,,,,,,,,,,,,
,,,,,,,,,,,square.jpg,0,0,m,023,2019-06-09_22h12.34.995,Primed GoNogo,3.0.4,60,,,m,1,0.413,1,0,8,0,1,7,,,,,,,,,,,,,,,,,,,,,,,,,,,,,,,,,,,
,,,,,,,,,,,square.jpg,0.1,0,m,023,2019-06-09_22h12.34.995,Primed GoNogo,3.0.4,60,,,,0,,1,0,8,3,1,7,,,,,,,,,,,,,,,,,,,,,,,,,,,,,,,,,,,
,,,,,,,,,,,square.jpg,0,0,m,023,2019-06-09_22h12.34.995,Primed GoNogo,3.0.4,60,,,,0,,1,0,8,1,1,7,,,,,,,,,,,,,,,,,,,,,,,,,,,,,,,,,,,
,,,,,,,,,,,circle.jpg,-0.1,0,none,023,2019-06-09_22h12.34.995,Primed GoNogo,3.0.4,60,,,c,0,0.394,1,0,8,7,1,7,,,,,,,,,,,,,,,,,,,,,,,,,,,,,,,,,,,
,,,,,,,,,,,circle.jpg,-0.1,0,none,023,2019-06-09_22h12.34.995,Primed GoNogo,3.0.4,60,,,,,,,,,,,,space,14.391,,,1,1,0,2,1,1,1,conditionsMaster2.csv,1,0,3,0,1,2,conditionsFile2.csv,1,0,1,0,1,0,conditions2.csv,"If you see a circle: 
respond with the letter  C   only if the triangle is in the middle. 

DO NOT press anything if the triangle is positioned on the left.
 

If you see a square:
Always respond with the letter  M   
",1,0,80,23,1,79,,
,,,,,,,,,,,square.jpg,0,0,m,023,2019-06-09_22h12.34.995,Primed GoNogo,3.0.4,60,,,,,,,,,,,,,,,m,1,1,0,2,1,1,1,conditionsMaster2.csv,1,0,3,0,1,2,conditionsFile2.csv,1,0,1,0,1,0,conditions2.csv,"If you see a circle: 
respond with the letter  C   only if the triangle is in the middle. 

DO NOT press anything if the triangle is positioned on the left.
 

If you see a square:
Always respond with the letter  M   
",1,0,80,10,1,79,0.297,
,,,,,,,,,,,circle.jpg,0,0,c,023,2019-06-09_22h12.34.995,Primed GoNogo,3.0.4,60,,,,,,,,,,,,,,,c,1,1,0,2,1,1,1,conditionsMaster2.csv,1,0,3,0,1,2,conditionsFile2.csv,1,0,1,0,1,0,conditions2.csv,"If you see a circle: 
respond with the letter  C   only if the triangle is in the middle. 

DO NOT press anything if the triangle is positioned on the left.
 

If you see a square:
Always respond with the letter  M   
",1,0,80,6,1,79,0.345,
,,,,,,,,,,,circle.jpg,0,0,c,023,2019-06-09_22h12.34.995,Primed GoNogo,3.0.4,60,,,,,,,,,,,,,,,c,1,1,0,2,1,1,1,conditionsMaster2.csv,1,0,3,0,1,2,conditionsFile2.csv,1,0,1,0,1,0,conditions2.csv,"If you see a circle: 
respond with the letter  C   only if the triangle is in the middle. 

DO NOT press anything if the triangle is positioned on the left.
 

If you see a square:
Always respond with the letter  M   
",1,0,80,5,1,79,0.397,
,,,,,,,,,,,circle.jpg,-0.1,0,none,023,2019-06-09_22h12.34.995,Primed GoNogo,3.0.4,60,,,,,,,,,,,,,,,,1,1,0,2,1,1,1,conditionsMaster2.csv,1,0,3,0,1,2,conditionsFile2.csv,1,0,1,0,1,0,conditions2.csv,"If you see a circle: 
respond with the letter  C   only if the triangle is in the middle. 

DO NOT press anything if the triangle is positioned on the left.
 

If you see a square:
Always respond with the letter  M   
",1,0,80,31,1,79,,
,,,,,,,,,,,circle.jpg,0,0,c,023,2019-06-09_22h12.34.995,Primed GoNogo,3.0.4,60,,,,,,,,,,,,,,,c,1,1,0,2,1,1,1,conditionsMaster2.csv,1,0,3,0,1,2,conditionsFile2.csv,1,0,1,0,1,0,conditions2.csv,"If you see a circle: 
respond with the letter  C   only if the triangle is in the middle. 

DO NOT press anything if the triangle is positioned on the left.
 

If you see a square:
Always respond with the letter  M   
",1,0,80,14,1,79,0.394,
,,,,,,,,,,,circle.jpg,0,0,c,023,2019-06-09_22h12.34.995,Primed GoNogo,3.0.4,60,,,,,,,,,,,,,,,c,1,1,0,2,1,1,1,conditionsMaster2.csv,1,0,3,0,1,2,conditionsFile2.csv,1,0,1,0,1,0,conditions2.csv,"If you see a circle: 
respond with the letter  C   only if the triangle is in the middle. 

DO NOT press anything if the triangle is positioned on the left.
 

If you see a square:
Always respond with the letter  M   
",1,0,80,61,1,79,0.447,
,,,,,,,,,,,square.jpg,0,0,m,023,2019-06-09_22h12.34.995,Primed GoNogo,3.0.4,60,,,,,,,,,,,,,,,m,1,1,0,2,1,1,1,conditionsMaster2.csv,1,0,3,0,1,2,conditionsFile2.csv,1,0,1,0,1,0,conditions2.csv,"If you see a circle: 
respond with the letter  C   only if the triangle is in the middle. 

DO NOT press anything if the triangle is positioned on the left.
 

If you see a square:
Always respond with the letter  M   
",1,0,80,48,1,79,0.297,
,,,,,,,,,,,square.jpg,0,0,m,023,2019-06-09_22h12.34.995,Primed GoNogo,3.0.4,60,,,,,,,,,,,,,,,m,1,1,0,2,1,1,1,conditionsMaster2.csv,1,0,3,0,1,2,conditionsFile2.csv,1,0,1,0,1,0,conditions2.csv,"If you see a circle: 
respond with the letter  C   only if the triangle is in the middle. 

DO NOT press anything if the triangle is positioned on the left.
 

If you see a square:
Always respond with the letter  M   
",1,0,80,65,1,79,0.313,
,,,,,,,,,,,square.jpg,0,0,m,023,2019-06-09_22h12.34.995,Primed GoNogo,3.0.4,60,,,,,,,,,,,,,,,m,1,1,0,2,1,1,1,conditionsMaster2.csv,1,0,3,0,1,2,conditionsFile2.csv,1,0,1,0,1,0,conditions2.csv,"If you see a circle: 
respond with the letter  C   only if the triangle is in the middle. 

DO NOT press anything if the triangle is positioned on the left.
 

If you see a square:
Always respond with the letter  M   
",1,0,80,74,1,79,0.278,
,,,,,,,,,,,square.jpg,0,0,m,023,2019-06-09_22h12.34.995,Primed GoNogo,3.0.4,60,,,,,,,,,,,,,,,m,1,1,0,2,1,1,1,conditionsMaster2.csv,1,0,3,0,1,2,conditionsFile2.csv,1,0,1,0,1,0,conditions2.csv,"If you see a circle: 
respond with the letter  C   only if the triangle is in the middle. 

DO NOT press anything if the triangle is positioned on the left.
 

If you see a square:
Always respond with the letter  M   
",1,0,80,1,1,79,0.279,
,,,,,,,,,,,circle.jpg,0,0,c,023,2019-06-09_22h12.34.995,Primed GoNogo,3.0.4,60,,,,,,,,,,,,,,,c,1,1,0,2,1,1,1,conditionsMaster2.csv,1,0,3,0,1,2,conditionsFile2.csv,1,0,1,0,1,0,conditions2.csv,"If you see a circle: 
respond with the letter  C   only if the triangle is in the middle. 

DO NOT press anything if the triangle is positioned on the left.
 

If you see a square:
Always respond with the letter  M   
",1,0,80,20,1,79,0.446,
,,,,,,,,,,,square.jpg,0,0,m,023,2019-06-09_22h12.34.995,Primed GoNogo,3.0.4,60,,,,,,,,,,,,,,,m,1,1,0,2,1,1,1,conditionsMaster2.csv,1,0,3,0,1,2,conditionsFile2.csv,1,0,1,0,1,0,conditions2.csv,"If you see a circle: 
respond with the letter  C   only if the triangle is in the middle. 

DO NOT press anything if the triangle is positioned on the left.
 

If you see a square:
Always respond with the letter  M   
",1,0,80,25,1,79,0.197,
,,,,,,,,,,,square.jpg,0,0,m,023,2019-06-09_22h12.34.995,Primed GoNogo,3.0.4,60,,,,,,,,,,,,,,,m,1,1,0,2,1,1,1,conditionsMaster2.csv,1,0,3,0,1,2,conditionsFile2.csv,1,0,1,0,1,0,conditions2.csv,"If you see a circle: 
respond with the letter  C   only if the triangle is in the middle. 

DO NOT press anything if the triangle is positioned on the left.
 

If you see a square:
Always respond with the letter  M   
",1,0,80,66,1,79,0.264,
,,,,,,,,,,,circle.jpg,0,0,c,023,2019-06-09_22h12.34.995,Primed GoNogo,3.0.4,60,,,,,,,,,,,,,,,c,1,1,0,2,1,1,1,conditionsMaster2.csv,1,0,3,0,1,2,conditionsFile2.csv,1,0,1,0,1,0,conditions2.csv,"If you see a circle: 
respond with the letter  C   only if the triangle is in the middle. 

DO NOT press anything if the triangle is positioned on the left.
 

If you see a square:
Always respond with the letter  M   
",1,0,80,54,1,79,0.531,
,,,,,,,,,,,circle.jpg,0,0,c,023,2019-06-09_22h12.34.995,Primed GoNogo,3.0.4,60,,,,,,,,,,,,,,,c,1,1,0,2,1,1,1,conditionsMaster2.csv,1,0,3,0,1,2,conditionsFile2.csv,1,0,1,0,1,0,conditions2.csv,"If you see a circle: 
respond with the letter  C   only if the triangle is in the middle. 

DO NOT press anything if the triangle is positioned on the left.
 

If you see a square:
Always respond with the letter  M   
",1,0,80,22,1,79,0.496,
,,,,,,,,,,,circle.jpg,0,0,c,023,2019-06-09_22h12.34.995,Primed GoNogo,3.0.4,60,,,,,,,,,,,,,,,c,1,1,0,2,1,1,1,conditionsMaster2.csv,1,0,3,0,1,2,conditionsFile2.csv,1,0,1,0,1,0,conditions2.csv,"If you see a circle: 
respond with the letter  C   only if the triangle is in the middle. 

DO NOT press anything if the triangle is positioned on the left.
 

If you see a square:
Always respond with the letter  M   
",1,0,80,76,1,79,0.53,
,,,,,,,,,,,square.jpg,0,0,m,023,2019-06-09_22h12.34.995,Primed GoNogo,3.0.4,60,,,,,,,,,,,,,,,m,1,1,0,2,1,1,1,conditionsMaster2.csv,1,0,3,0,1,2,conditionsFile2.csv,1,0,1,0,1,0,conditions2.csv,"If you see a circle: 
respond with the letter  C   only if the triangle is in the middle. 

DO NOT press anything if the triangle is positioned on the left.
 

If you see a square:
Always respond with the letter  M   
",1,0,80,32,1,79,0.246,
,,,,,,,,,,,square.jpg,0.1,0,m,023,2019-06-09_22h12.34.995,Primed GoNogo,3.0.4,60,,,,,,,,,,,,,,,m,1,1,0,2,1,1,1,conditionsMaster2.csv,1,0,3,0,1,2,conditionsFile2.csv,1,0,1,0,1,0,conditions2.csv,"If you see a circle: 
respond with the letter  C   only if the triangle is in the middle. 

DO NOT press anything if the triangle is positioned on the left.
 

If you see a square:
Always respond with the letter  M   
",1,0,80,35,1,79,0.396,
,,,,,,,,,,,circle.jpg,0,0,c,023,2019-06-09_22h12.34.995,Primed GoNogo,3.0.4,60,,,,,,,,,,,,,,,c,1,1,0,2,1,1,1,conditionsMaster2.csv,1,0,3,0,1,2,conditionsFile2.csv,1,0,1,0,1,0,conditions2.csv,"If you see a circle: 
respond with the letter  C   only if the triangle is in the middle. 

DO NOT press anything if the triangle is positioned on the left.
 

If you see a square:
Always respond with the letter  M   
",1,0,80,4,1,79,0.447,
,,,,,,,,,,,square.jpg,0,0,m,023,2019-06-09_22h12.34.995,Primed GoNogo,3.0.4,60,,,,,,,,,,,,,,,m,1,1,0,2,1,1,1,conditionsMaster2.csv,1,0,3,0,1,2,conditionsFile2.csv,1,0,1,0,1,0,conditions2.csv,"If you see a circle: 
respond with the letter  C   only if the triangle is in the middle. 

DO NOT press anything if the triangle is positioned on the left.
 

If you see a square:
Always respond with the letter  M   
",1,0,80,18,1,79,0.23,
,,,,,,,,,,,circle.jpg,0,0,c,023,2019-06-09_22h12.34.995,Primed GoNogo,3.0.4,60,,,,,,,,,,,,,,,c,1,1,0,2,1,1,1,conditionsMaster2.csv,1,0,3,0,1,2,conditionsFile2.csv,1,0,1,0,1,0,conditions2.csv,"If you see a circle: 
respond with the letter  C   only if the triangle is in the middle. 

DO NOT press anything if the triangle is positioned on the left.
 

If you see a square:
Always respond with the letter  M   
",1,0,80,70,1,79,0.48,
,,,,,,,,,,,square.jpg,0.1,0,m,023,2019-06-09_22h12.34.995,Primed GoNogo,3.0.4,60,,,,,,,,,,,,,,,m,1,1,0,2,1,1,1,conditionsMaster2.csv,1,0,3,0,1,2,conditionsFile2.csv,1,0,1,0,1,0,conditions2.csv,"If you see a circle: 
respond with the letter  C   only if the triangle is in the middle. 

DO NOT press anything if the triangle is positioned on the left.
 

If you see a square:
Always respond with the letter  M   
",1,0,80,59,1,79,0.296,
,,,,,,,,,,,square.jpg,0.1,0,m,023,2019-06-09_22h12.34.995,Primed GoNogo,3.0.4,60,,,,,,,,,,,,,,,m,1,1,0,2,1,1,1,conditionsMaster2.csv,1,0,3,0,1,2,conditionsFile2.csv,1,0,1,0,1,0,conditions2.csv,"If you see a circle: 
respond with the letter  C   only if the triangle is in the middle. 

DO NOT press anything if the triangle is positioned on the left.
 

If you see a square:
Always respond with the letter  M   
",1,0,80,75,1,79,0.481,
,,,,,,,,,,,square.jpg,0,0,m,023,2019-06-09_22h12.34.995,Primed GoNogo,3.0.4,60,,,,,,,,,,,,,,,m,1,1,0,2,1,1,1,conditionsMaster2.csv,1,0,3,0,1,2,conditionsFile2.csv,1,0,1,0,1,0,conditions2.csv,"If you see a circle: 
respond with the letter  C   only if the triangle is in the middle. 

DO NOT press anything if the triangle is positioned on the left.
 

If you see a square:
Always respond with the letter  M   
",1,0,80,64,1,79,0.546,
,,,,,,,,,,,square.jpg,0,0,m,023,2019-06-09_22h12.34.995,Primed GoNogo,3.0.4,60,,,,,,,,,,,,,,,m,1,1,0,2,1,1,1,conditionsMaster2.csv,1,0,3,0,1,2,conditionsFile2.csv,1,0,1,0,1,0,conditions2.csv,"If you see a circle: 
respond with the letter  C   only if the triangle is in the middle. 

DO NOT press anything if the triangle is positioned on the left.
 

If you see a square:
Always respond with the letter  M   
",1,0,80,50,1,79,0.329,
,,,,,,,,,,,circle.jpg,0,0,c,023,2019-06-09_22h12.34.995,Primed GoNogo,3.0.4,60,,,,,,,,,,,,,,,c,1,1,0,2,1,1,1,conditionsMaster2.csv,1,0,3,0,1,2,conditionsFile2.csv,1,0,1,0,1,0,conditions2.csv,"If you see a circle: 
respond with the letter  C   only if the triangle is in the middle. 

DO NOT press anything if the triangle is positioned on the left.
 

If you see a square:
Always respond with the letter  M   
",1,0,80,53,1,79,0.412,
,,,,,,,,,,,circle.jpg,0,0,c,023,2019-06-09_22h12.34.995,Primed GoNogo,3.0.4,60,,,,,,,,,,,,,,,,0,1,0,2,1,1,1,conditionsMaster2.csv,1,0,3,0,1,2,conditionsFile2.csv,1,0,1,0,1,0,conditions2.csv,"If you see a circle: 
respond with the letter  C   only if the triangle is in the middle. 

DO NOT press anything if the triangle is positioned on the left.
 

If you see a square:
Always respond with the letter  M   
",1,0,80,29,1,79,,
,,,,,,,,,,,square.jpg,0,0,m,023,2019-06-09_22h12.34.995,Primed GoNogo,3.0.4,60,,,,,,,,,,,,,,,,0,1,0,2,1,1,1,conditionsMaster2.csv,1,0,3,0,1,2,conditionsFile2.csv,1,0,1,0,1,0,conditions2.csv,"If you see a circle: 
respond with the letter  C   only if the triangle is in the middle. 

DO NOT press anything if the triangle is positioned on the left.
 

If you see a square:
Always respond with the letter  M   
",1,0,80,56,1,79,,
,,,,,,,,,,,square.jpg,0,0,m,023,2019-06-09_22h12.34.995,Primed GoNogo,3.0.4,60,,,,,,,,,,,,,,,m,1,1,0,2,1,1,1,conditionsMaster2.csv,1,0,3,0,1,2,conditionsFile2.csv,1,0,1,0,1,0,conditions2.csv,"If you see a circle: 
respond with the letter  C   only if the triangle is in the middle. 

DO NOT press anything if the triangle is positioned on the left.
 

If you see a square:
Always respond with the letter  M   
",1,0,80,33,1,79,0.329,
,,,,,,,,,,,circle.jpg,0,0,c,023,2019-06-09_22h12.34.995,Primed GoNogo,3.0.4,60,,,,,,,,,,,,,,,c,1,1,0,2,1,1,1,conditionsMaster2.csv,1,0,3,0,1,2,conditionsFile2.csv,1,0,1,0,1,0,conditions2.csv,"If you see a circle: 
respond with the letter  C   only if the triangle is in the middle. 

DO NOT press anything if the triangle is positioned on the left.
 

If you see a square:
Always respond with the letter  M   
",1,0,80,36,1,79,0.379,
,,,,,,,,,,,square.jpg,0,0,m,023,2019-06-09_22h12.34.995,Primed GoNogo,3.0.4,60,,,,,,,,,,,,,,,m,1,1,0,2,1,1,1,conditionsMaster2.csv,1,0,3,0,1,2,conditionsFile2.csv,1,0,1,0,1,0,conditions2.csv,"If you see a circle: 
respond with the letter  C   only if the triangle is in the middle. 

DO NOT press anything if the triangle is positioned on the left.
 

If you see a square:
Always respond with the letter  M   
",1,0,80,72,1,79,0.446,
,,,,,,,,,,,circle.jpg,0,0,c,023,2019-06-09_22h12.34.995,Primed GoNogo,3.0.4,60,,,,,,,,,,,,,,,c,1,1,0,2,1,1,1,conditionsMaster2.csv,1,0,3,0,1,2,conditionsFile2.csv,1,0,1,0,1,0,conditions2.csv,"If you see a circle: 
respond with the letter  C   only if the triangle is in the middle. 

DO NOT press anything if the triangle is positioned on the left.
 

If you see a square:
Always respond with the letter  M   
",1,0,80,12,1,79,0.413,
,,,,,,,,,,,square.jpg,0,0,m,023,2019-06-09_22h12.34.995,Primed GoNogo,3.0.4,60,,,,,,,,,,,,,,,m,1,1,0,2,1,1,1,conditionsMaster2.csv,1,0,3,0,1,2,conditionsFile2.csv,1,0,1,0,1,0,conditions2.csv,"If you see a circle: 
respond with the letter  C   only if the triangle is in the middle. 

DO NOT press anything if the triangle is positioned on the left.
 

If you see a square:
Always respond with the letter  M   
",1,0,80,16,1,79,0.165,
,,,,,,,,,,,square.jpg,0,0,m,023,2019-06-09_22h12.34.995,Primed GoNogo,3.0.4,60,,,,,,,,,,,,,,,m,1,1,0,2,1,1,1,conditionsMaster2.csv,1,0,3,0,1,2,conditionsFile2.csv,1,0,1,0,1,0,conditions2.csv,"If you see a circle: 
respond with the letter  C   only if the triangle is in the middle. 

DO NOT press anything if the triangle is positioned on the left.
 

If you see a square:
Always respond with the letter  M   
",1,0,80,2,1,79,0.012,
,,,,,,,,,,,square.jpg,0.1,0,m,023,2019-06-09_22h12.34.995,Primed GoNogo,3.0.4,60,,,,,,,,,,,,,,,m,1,1,0,2,1,1,1,conditionsMaster2.csv,1,0,3,0,1,2,conditionsFile2.csv,1,0,1,0,1,0,conditions2.csv,"If you see a circle: 
respond with the letter  C   only if the triangle is in the middle. 

DO NOT press anything if the triangle is positioned on the left.
 

If you see a square:
Always respond with the letter  M   
",1,0,80,19,1,79,0.478,
,,,,,,,,,,,circle.jpg,0,0,c,023,2019-06-09_22h12.34.995,Primed GoNogo,3.0.4,60,,,,,,,,,,,,,,,c,1,1,0,2,1,1,1,conditionsMaster2.csv,1,0,3,0,1,2,conditionsFile2.csv,1,0,1,0,1,0,conditions2.csv,"If you see a circle: 
respond with the letter  C   only if the triangle is in the middle. 

DO NOT press anything if the triangle is positioned on the left.
 

If you see a square:
Always respond with the letter  M   
",1,0,80,44,1,79,0.414,
,,,,,,,,,,,square.jpg,0.1,0,m,023,2019-06-09_22h12.34.995,Primed GoNogo,3.0.4,60,,,,,,,,,,,,,,,m,1,1,0,2,1,1,1,conditionsMaster2.csv,1,0,3,0,1,2,conditionsFile2.csv,1,0,1,0,1,0,conditions2.csv,"If you see a circle: 
respond with the letter  C   only if the triangle is in the middle. 

DO NOT press anything if the triangle is positioned on the left.
 

If you see a square:
Always respond with the letter  M   
",1,0,80,43,1,79,0.212,
,,,,,,,,,,,circle.jpg,0,0,c,023,2019-06-09_22h12.34.995,Primed GoNogo,3.0.4,60,,,,,,,,,,,,,,,c,1,1,0,2,1,1,1,conditionsMaster2.csv,1,0,3,0,1,2,conditionsFile2.csv,1,0,1,0,1,0,conditions2.csv,"If you see a circle: 
respond with the letter  C   only if the triangle is in the middle. 

DO NOT press anything if the triangle is positioned on the left.
 

If you see a square:
Always respond with the letter  M   
",1,0,80,69,1,79,0.43,
,,,,,,,,,,,circle.jpg,-0.1,0,none,023,2019-06-09_22h12.34.995,Primed GoNogo,3.0.4,60,,,,,,,,,,,,,,,,1,1,0,2,1,1,1,conditionsMaster2.csv,1,0,3,0,1,2,conditionsFile2.csv,1,0,1,0,1,0,conditions2.csv,"If you see a circle: 
respond with the letter  C   only if the triangle is in the middle. 

DO NOT press anything if the triangle is positioned on the left.
 

If you see a square:
Always respond with the letter  M   
",1,0,80,55,1,79,,
,,,,,,,,,,,square.jpg,0,0,m,023,2019-06-09_22h12.34.995,Primed GoNogo,3.0.4,60,,,,,,,,,,,,,,,m,1,1,0,2,1,1,1,conditionsMaster2.csv,1,0,3,0,1,2,conditionsFile2.csv,1,0,1,0,1,0,conditions2.csv,"If you see a circle: 
respond with the letter  C   only if the triangle is in the middle. 

DO NOT press anything if the triangle is positioned on the left.
 

If you see a square:
Always respond with the letter  M   
",1,0,80,34,1,79,0.247,
,,,,,,,,,,,circle.jpg,0,0,c,023,2019-06-09_22h12.34.995,Primed GoNogo,3.0.4,60,,,,,,,,,,,,,,,c,1,1,0,2,1,1,1,conditionsMaster2.csv,1,0,3,0,1,2,conditionsFile2.csv,1,0,1,0,1,0,conditions2.csv,"If you see a circle: 
respond with the letter  C   only if the triangle is in the middle. 

DO NOT press anything if the triangle is positioned on the left.
 

If you see a square:
Always respond with the letter  M   
",1,0,80,38,1,79,0.446,
,,,,,,,,,,,square.jpg,0,0,m,023,2019-06-09_22h12.34.995,Primed GoNogo,3.0.4,60,,,,,,,,,,,,,,,m,1,1,0,2,1,1,1,conditionsMaster2.csv,1,0,3,0,1,2,conditionsFile2.csv,1,0,1,0,1,0,conditions2.csv,"If you see a circle: 
respond with the letter  C   only if the triangle is in the middle. 

DO NOT press anything if the triangle is positioned on the left.
 

If you see a square:
Always respond with the letter  M   
",1,0,80,41,1,79,0.565,
,,,,,,,,,,,circle.jpg,0,0,c,023,2019-06-09_22h12.34.995,Primed GoNogo,3.0.4,60,,,,,,,,,,,,,,,c,1,1,0,2,1,1,1,conditionsMaster2.csv,1,0,3,0,1,2,conditionsFile2.csv,1,0,1,0,1,0,conditions2.csv,"If you see a circle: 
respond with the letter  C   only if the triangle is in the middle. 

DO NOT press anything if the triangle is positioned on the left.
 

If you see a square:
Always respond with the letter  M   
",1,0,80,52,1,79,0.563,
,,,,,,,,,,,square.jpg,0.1,0,m,023,2019-06-09_22h12.34.995,Primed GoNogo,3.0.4,60,,,,,,,,,,,,,,,m,1,1,0,2,1,1,1,conditionsMaster2.csv,1,0,3,0,1,2,conditionsFile2.csv,1,0,1,0,1,0,conditions2.csv,"If you see a circle: 
respond with the letter  C   only if the triangle is in the middle. 

DO NOT press anything if the triangle is positioned on the left.
 

If you see a square:
Always respond with the letter  M   
",1,0,80,51,1,79,0.53,
,,,,,,,,,,,circle.jpg,-0.1,0,none,023,2019-06-09_22h12.34.995,Primed GoNogo,3.0.4,60,,,,,,,,,,,,,,,c,0,1,0,2,1,1,1,conditionsMaster2.csv,1,0,3,0,1,2,conditionsFile2.csv,1,0,1,0,1,0,conditions2.csv,"If you see a circle: 
respond with the letter  C   only if the triangle is in the middle. 

DO NOT press anything if the triangle is positioned on the left.
 

If you see a square:
Always respond with the letter  M   
",1,0,80,71,1,79,0.531,
,,,,,,,,,,,square.jpg,0,0,m,023,2019-06-09_22h12.34.995,Primed GoNogo,3.0.4,60,,,,,,,,,,,,,,,m,1,1,0,2,1,1,1,conditionsMaster2.csv,1,0,3,0,1,2,conditionsFile2.csv,1,0,1,0,1,0,conditions2.csv,"If you see a circle: 
respond with the letter  C   only if the triangle is in the middle. 

DO NOT press anything if the triangle is positioned on the left.
 

If you see a square:
Always respond with the letter  M   
",1,0,80,17,1,79,0.496,
,,,,,,,,,,,circle.jpg,-0.1,0,none,023,2019-06-09_22h12.34.995,Primed GoNogo,3.0.4,60,,,,,,,,,,,,,,,,1,1,0,2,1,1,1,conditionsMaster2.csv,1,0,3,0,1,2,conditionsFile2.csv,1,0,1,0,1,0,conditions2.csv,"If you see a circle: 
respond with the letter  C   only if the triangle is in the middle. 

DO NOT press anything if the triangle is positioned on the left.
 

If you see a square:
Always respond with the letter  M   
",1,0,80,63,1,79,,
,,,,,,,,,,,circle.jpg,-0.1,0,none,023,2019-06-09_22h12.34.995,Primed GoNogo,3.0.4,60,,,,,,,,,,,,,,,,1,1,0,2,1,1,1,conditionsMaster2.csv,1,0,3,0,1,2,conditionsFile2.csv,1,0,1,0,1,0,conditions2.csv,"If you see a circle: 
respond with the letter  C   only if the triangle is in the middle. 

DO NOT press anything if the triangle is positioned on the left.
 

If you see a square:
Always respond with the letter  M   
",1,0,80,79,1,79,,
,,,,,,,,,,,square.jpg,0,0,m,023,2019-06-09_22h12.34.995,Primed GoNogo,3.0.4,60,,,,,,,,,,,,,,,m,1,1,0,2,1,1,1,conditionsMaster2.csv,1,0,3,0,1,2,conditionsFile2.csv,1,0,1,0,1,0,conditions2.csv,"If you see a circle: 
respond with the letter  C   only if the triangle is in the middle. 

DO NOT press anything if the triangle is positioned on the left.
 

If you see a square:
Always respond with the letter  M   
",1,0,80,58,1,79,0.38,
,,,,,,,,,,,circle.jpg,-0.1,0,none,023,2019-06-09_22h12.34.995,Primed GoNogo,3.0.4,60,,,,,,,,,,,,,,,,1,1,0,2,1,1,1,conditionsMaster2.csv,1,0,3,0,1,2,conditionsFile2.csv,1,0,1,0,1,0,conditions2.csv,"If you see a circle: 
respond with the letter  C   only if the triangle is in the middle. 

DO NOT press anything if the triangle is positioned on the left.
 

If you see a square:
Always respond with the letter  M   
",1,0,80,47,1,79,,
,,,,,,,,,,,circle.jpg,0,0,c,023,2019-06-09_22h12.34.995,Primed GoNogo,3.0.4,60,,,,,,,,,,,,,,,c,1,1,0,2,1,1,1,conditionsMaster2.csv,1,0,3,0,1,2,conditionsFile2.csv,1,0,1,0,1,0,conditions2.csv,"If you see a circle: 
respond with the letter  C   only if the triangle is in the middle. 

DO NOT press anything if the triangle is positioned on the left.
 

If you see a square:
Always respond with the letter  M   
",1,0,80,21,1,79,0.546,
,,,,,,,,,,,circle.jpg,0,0,c,023,2019-06-09_22h12.34.995,Primed GoNogo,3.0.4,60,,,,,,,,,,,,,,,c,1,1,0,2,1,1,1,conditionsMaster2.csv,1,0,3,0,1,2,conditionsFile2.csv,1,0,1,0,1,0,conditions2.csv,"If you see a circle: 
respond with the letter  C   only if the triangle is in the middle. 

DO NOT press anything if the triangle is positioned on the left.
 

If you see a square:
Always respond with the letter  M   
",1,0,80,37,1,79,0.479,
,,,,,,,,,,,circle.jpg,0,0,c,023,2019-06-09_22h12.34.995,Primed GoNogo,3.0.4,60,,,,,,,,,,,,,,,c,1,1,0,2,1,1,1,conditionsMaster2.csv,1,0,3,0,1,2,conditionsFile2.csv,1,0,1,0,1,0,conditions2.csv,"If you see a circle: 
respond with the letter  C   only if the triangle is in the middle. 

DO NOT press anything if the triangle is positioned on the left.
 

If you see a square:
Always respond with the letter  M   
",1,0,80,30,1,79,0.466,
,,,,,,,,,,,circle.jpg,0,0,c,023,2019-06-09_22h12.34.995,Primed GoNogo,3.0.4,60,,,,,,,,,,,,,,,,0,1,0,2,1,1,1,conditionsMaster2.csv,1,0,3,0,1,2,conditionsFile2.csv,1,0,1,0,1,0,conditions2.csv,"If you see a circle: 
respond with the letter  C   only if the triangle is in the middle. 

DO NOT press anything if the triangle is positioned on the left.
 

If you see a square:
Always respond with the letter  M   
",1,0,80,62,1,79,,
,,,,,,,,,,,circle.jpg,-0.1,0,none,023,2019-06-09_22h12.34.995,Primed GoNogo,3.0.4,60,,,,,,,,,,,,,,,,1,1,0,2,1,1,1,conditionsMaster2.csv,1,0,3,0,1,2,conditionsFile2.csv,1,0,1,0,1,0,conditions2.csv,"If you see a circle: 
respond with the letter  C   only if the triangle is in the middle. 

DO NOT press anything if the triangle is positioned on the left.
 

If you see a square:
Always respond with the letter  M   
",1,0,80,15,1,79,,
,,,,,,,,,,,square.jpg,0.1,0,m,023,2019-06-09_22h12.34.995,Primed GoNogo,3.0.4,60,,,,,,,,,,,,,,,m,1,1,0,2,1,1,1,conditionsMaster2.csv,1,0,3,0,1,2,conditionsFile2.csv,1,0,1,0,1,0,conditions2.csv,"If you see a circle: 
respond with the letter  C   only if the triangle is in the middle. 

DO NOT press anything if the triangle is positioned on the left.
 

If you see a square:
Always respond with the letter  M   
",1,0,80,67,1,79,0.464,
,,,,,,,,,,,square.jpg,0.1,0,m,023,2019-06-09_22h12.34.995,Primed GoNogo,3.0.4,60,,,,,,,,,,,,,,,m,1,1,0,2,1,1,1,conditionsMaster2.csv,1,0,3,0,1,2,conditionsFile2.csv,1,0,1,0,1,0,conditions2.csv,"If you see a circle: 
respond with the letter  C   only if the triangle is in the middle. 

DO NOT press anything if the triangle is positioned on the left.
 

If you see a square:
Always respond with the letter  M   
",1,0,80,11,1,79,0.529,
,,,,,,,,,,,square.jpg,0,0,m,023,2019-06-09_22h12.34.995,Primed GoNogo,3.0.4,60,,,,,,,,,,,,,,,m,1,1,0,2,1,1,1,conditionsMaster2.csv,1,0,3,0,1,2,conditionsFile2.csv,1,0,1,0,1,0,conditions2.csv,"If you see a circle: 
respond with the letter  C   only if the triangle is in the middle. 

DO NOT press anything if the triangle is positioned on the left.
 

If you see a square:
Always respond with the letter  M   
",1,0,80,40,1,79,0.43,
,,,,,,,,,,,circle.jpg,0,0,c,023,2019-06-09_22h12.34.995,Primed GoNogo,3.0.4,60,,,,,,,,,,,,,,,c,1,1,0,2,1,1,1,conditionsMaster2.csv,1,0,3,0,1,2,conditionsFile2.csv,1,0,1,0,1,0,conditions2.csv,"If you see a circle: 
respond with the letter  C   only if the triangle is in the middle. 

DO NOT press anything if the triangle is positioned on the left.
 

If you see a square:
Always respond with the letter  M   
",1,0,80,13,1,79,0.414,
,,,,,,,,,,,square.jpg,0.1,0,m,023,2019-06-09_22h12.34.995,Primed GoNogo,3.0.4,60,,,,,,,,,,,,,,,m,1,1,0,2,1,1,1,conditionsMaster2.csv,1,0,3,0,1,2,conditionsFile2.csv,1,0,1,0,1,0,conditions2.csv,"If you see a circle: 
respond with the letter  C   only if the triangle is in the middle. 

DO NOT press anything if the triangle is positioned on the left.
 

If you see a square:
Always respond with the letter  M   
",1,0,80,27,1,79,0.481,
,,,,,,,,,,,circle.jpg,0,0,c,023,2019-06-09_22h12.34.995,Primed GoNogo,3.0.4,60,,,,,,,,,,,,,,,c,1,1,0,2,1,1,1,conditionsMaster2.csv,1,0,3,0,1,2,conditionsFile2.csv,1,0,1,0,1,0,conditions2.csv,"If you see a circle: 
respond with the letter  C   only if the triangle is in the middle. 

DO NOT press anything if the triangle is positioned on the left.
 

If you see a square:
Always respond with the letter  M   
",1,0,80,77,1,79,0.513,
,,,,,,,,,,,square.jpg,0,0,m,023,2019-06-09_22h12.34.995,Primed GoNogo,3.0.4,60,,,,,,,,,,,,,,,,0,1,0,2,1,1,1,conditionsMaster2.csv,1,0,3,0,1,2,conditionsFile2.csv,1,0,1,0,1,0,conditions2.csv,"If you see a circle: 
respond with the letter  C   only if the triangle is in the middle. 

DO NOT press anything if the triangle is positioned on the left.
 

If you see a square:
Always respond with the letter  M   
",1,0,80,26,1,79,,
,,,,,,,,,,,circle.jpg,0,0,c,023,2019-06-09_22h12.34.995,Primed GoNogo,3.0.4,60,,,,,,,,,,,,,,,c,1,1,0,2,1,1,1,conditionsMaster2.csv,1,0,3,0,1,2,conditionsFile2.csv,1,0,1,0,1,0,conditions2.csv,"If you see a circle: 
respond with the letter  C   only if the triangle is in the middle. 

DO NOT press anything if the triangle is positioned on the left.
 

If you see a square:
Always respond with the letter  M   
",1,0,80,45,1,79,0.397,
,,,,,,,,,,,circle.jpg,-0.1,0,none,023,2019-06-09_22h12.34.995,Primed GoNogo,3.0.4,60,,,,,,,,,,,,,,,c,0,1,0,2,1,1,1,conditionsMaster2.csv,1,0,3,0,1,2,conditionsFile2.csv,1,0,1,0,1,0,conditions2.csv,"If you see a circle: 
respond with the letter  C   only if the triangle is in the middle. 

DO NOT press anything if the triangle is positioned on the left.
 

If you see a square:
Always respond with the letter  M   
",1,0,80,7,1,79,0.412,
,,,,,,,,,,,square.jpg,0,0,m,023,2019-06-09_22h12.34.995,Primed GoNogo,3.0.4,60,,,,,,,,,,,,,,,m,1,1,0,2,1,1,1,conditionsMaster2.csv,1,0,3,0,1,2,conditionsFile2.csv,1,0,1,0,1,0,conditions2.csv,"If you see a circle: 
respond with the letter  C   only if the triangle is in the middle. 

DO NOT press anything if the triangle is positioned on the left.
 

If you see a square:
Always respond with the letter  M   
",1,0,80,49,1,79,0.529,
,,,,,,,,,,,square.jpg,0,0,m,023,2019-06-09_22h12.34.995,Primed GoNogo,3.0.4,60,,,,,,,,,,,,,,,,0,1,0,2,1,1,1,conditionsMaster2.csv,1,0,3,0,1,2,conditionsFile2.csv,1,0,1,0,1,0,conditions2.csv,"If you see a circle: 
respond with the letter  C   only if the triangle is in the middle. 

DO NOT press anything if the triangle is positioned on the left.
 

If you see a square:
Always respond with the letter  M   
",1,0,80,0,1,79,,
,,,,,,,,,,,square.jpg,0,0,m,023,2019-06-09_22h12.34.995,Primed GoNogo,3.0.4,60,,,,,,,,,,,,,,,m,1,1,0,2,1,1,1,conditionsMaster2.csv,1,0,3,0,1,2,conditionsFile2.csv,1,0,1,0,1,0,conditions2.csv,"If you see a circle: 
respond with the letter  C   only if the triangle is in the middle. 

DO NOT press anything if the triangle is positioned on the left.
 

If you see a square:
Always respond with the letter  M   
",1,0,80,73,1,79,0.364,
,,,,,,,,,,,circle.jpg,0,0,c,023,2019-06-09_22h12.34.995,Primed GoNogo,3.0.4,60,,,,,,,,,,,,,,,c,1,1,0,2,1,1,1,conditionsMaster2.csv,1,0,3,0,1,2,conditionsFile2.csv,1,0,1,0,1,0,conditions2.csv,"If you see a circle: 
respond with the letter  C   only if the triangle is in the middle. 

DO NOT press anything if the triangle is positioned on the left.
 

If you see a square:
Always respond with the letter  M   
",1,0,80,46,1,79,0.38,
,,,,,,,,,,,square.jpg,0,0,m,023,2019-06-09_22h12.34.995,Primed GoNogo,3.0.4,60,,,,,,,,,,,,,,,,0,1,0,2,1,1,1,conditionsMaster2.csv,1,0,3,0,1,2,conditionsFile2.csv,1,0,1,0,1,0,conditions2.csv,"If you see a circle: 
respond with the letter  C   only if the triangle is in the middle. 

DO NOT press anything if the triangle is positioned on the left.
 

If you see a square:
Always respond with the letter  M   
",1,0,80,9,1,79,,
,,,,,,,,,,,circle.jpg,0,0,c,023,2019-06-09_22h12.34.995,Primed GoNogo,3.0.4,60,,,,,,,,,,,,,,,c,1,1,0,2,1,1,1,conditionsMaster2.csv,1,0,3,0,1,2,conditionsFile2.csv,1,0,1,0,1,0,conditions2.csv,"If you see a circle: 
respond with the letter  C   only if the triangle is in the middle. 

DO NOT press anything if the triangle is positioned on the left.
 

If you see a square:
Always respond with the letter  M   
",1,0,80,60,1,79,0.429,
,,,,,,,,,,,square.jpg,0,0,m,023,2019-06-09_22h12.34.995,Primed GoNogo,3.0.4,60,,,,,,,,,,,,,,,m,1,1,0,2,1,1,1,conditionsMaster2.csv,1,0,3,0,1,2,conditionsFile2.csv,1,0,1,0,1,0,conditions2.csv,"If you see a circle: 
respond with the letter  C   only if the triangle is in the middle. 

DO NOT press anything if the triangle is positioned on the left.
 

If you see a square:
Always respond with the letter  M   
",1,0,80,57,1,79,0.562,
,,,,,,,,,,,square.jpg,0,0,m,023,2019-06-09_22h12.34.995,Primed GoNogo,3.0.4,60,,,,,,,,,,,,,,,m,1,1,0,2,1,1,1,conditionsMaster2.csv,1,0,3,0,1,2,conditionsFile2.csv,1,0,1,0,1,0,conditions2.csv,"If you see a circle: 
respond with the letter  C   only if the triangle is in the middle. 

DO NOT press anything if the triangle is positioned on the left.
 

If you see a square:
Always respond with the letter  M   
",1,0,80,24,1,79,0.13,
,,,,,,,,,,,circle.jpg,0,0,c,023,2019-06-09_22h12.34.995,Primed GoNogo,3.0.4,60,,,,,,,,,,,,,,,c,1,1,0,2,1,1,1,conditionsMaster2.csv,1,0,3,0,1,2,conditionsFile2.csv,1,0,1,0,1,0,conditions2.csv,"If you see a circle: 
respond with the letter  C   only if the triangle is in the middle. 

DO NOT press anything if the triangle is positioned on the left.
 

If you see a square:
Always respond with the letter  M   
",1,0,80,78,1,79,0.396,
,,,,,,,,,,,square.jpg,0.1,0,m,023,2019-06-09_22h12.34.995,Primed GoNogo,3.0.4,60,,,,,,,,,,,,,,,m,1,1,0,2,1,1,1,conditionsMaster2.csv,1,0,3,0,1,2,conditionsFile2.csv,1,0,1,0,1,0,conditions2.csv,"If you see a circle: 
respond with the letter  C   only if the triangle is in the middle. 

DO NOT press anything if the triangle is positioned on the left.
 

If you see a square:
Always respond with the letter  M   
",1,0,80,3,1,79,0.512,
,,,,,,,,,,,circle.jpg,0,0,c,023,2019-06-09_22h12.34.995,Primed GoNogo,3.0.4,60,,,,,,,,,,,,,,,c,1,1,0,2,1,1,1,conditionsMaster2.csv,1,0,3,0,1,2,conditionsFile2.csv,1,0,1,0,1,0,conditions2.csv,"If you see a circle: 
respond with the letter  C   only if the triangle is in the middle. 

DO NOT press anything if the triangle is positioned on the left.
 

If you see a square:
Always respond with the letter  M   
",1,0,80,68,1,79,0.53,
,,,,,,,,,,,circle.jpg,-0.1,0,none,023,2019-06-09_22h12.34.995,Primed GoNogo,3.0.4,60,,,,,,,,,,,,,,,c,0,1,0,2,1,1,1,conditionsMaster2.csv,1,0,3,0,1,2,conditionsFile2.csv,1,0,1,0,1,0,conditions2.csv,"If you see a circle: 
respond with the letter  C   only if the triangle is in the middle. 

DO NOT press anything if the triangle is positioned on the left.
 

If you see a square:
Always respond with the letter  M   
",1,0,80,39,1,79,0.547,
,,,,,,,,,,,circle.jpg,0,0,c,023,2019-06-09_22h12.34.995,Primed GoNogo,3.0.4,60,,,,,,,,,,,,,,,,0,1,0,2,1,1,1,conditionsMaster2.csv,1,0,3,0,1,2,conditionsFile2.csv,1,0,1,0,1,0,conditions2.csv,"If you see a circle: 
respond with the letter  C   only if the triangle is in the middle. 

DO NOT press anything if the triangle is positioned on the left.
 

If you see a square:
Always respond with the letter  M   
",1,0,80,28,1,79,,
,,,,,,,,,,,square.jpg,0,0,m,023,2019-06-09_22h12.34.995,Primed GoNogo,3.0.4,60,,,,,,,,,,,,,,,m,1,1,0,2,1,1,1,conditionsMaster2.csv,1,0,3,0,1,2,conditionsFile2.csv,1,0,1,0,1,0,conditions2.csv,"If you see a circle: 
respond with the letter  C   only if the triangle is in the middle. 

DO NOT press anything if the triangle is positioned on the left.
 

If you see a square:
Always respond with the letter  M   
",1,0,80,42,1,79,0.364,
,,,,,,,,,,,square.jpg,0,0,m,023,2019-06-09_22h12.34.995,Primed GoNogo,3.0.4,60,,,,,,,,,,,,,,,m,1,1,0,2,1,1,1,conditionsMaster2.csv,1,0,3,0,1,2,conditionsFile2.csv,1,0,1,0,1,0,conditions2.csv,"If you see a circle: 
respond with the letter  C   only if the triangle is in the middle. 

DO NOT press anything if the triangle is positioned on the left.
 

If you see a square:
Always respond with the letter  M   
",1,0,80,8,1,79,0.247,
,,,,,,,,,,,,,,,023,2019-06-09_22h12.34.995,Primed GoNogo,3.0.4,60,,,,,,,,,,,,,,,,,1,0,2,1,1,1,conditionsMaster2.csv,1,0,3,0,1,2,conditionsFile2.csv,1,0,1,0,1,0,conditions2.csv,"If you see a circle: 
respond with the letter  C   only if the triangle is in the middle. 

DO NOT press anything if the triangle is positioned on the left.
 

If you see a square:
Always respond with the letter  M   
",,,,,,,,
,,,,,,,,,,,,,,,023,2019-06-09_22h12.34.995,Primed GoNogo,3.0.4,60,,,,,,,,,,,,,,,,,1,0,2,1,1,1,conditionsMaster2.csv,1,0,3,0,1,2,conditionsFile2.csv,,,,,,,,,,,,,,,,
,,,,,,,,,,,circle.jpg,0,0,c,023,2019-06-09_22h12.34.995,Primed GoNogo,3.0.4,60,,,,,,,,,,,,,,,c,1,1,0,2,1,1,1,conditionsMaster2.csv,1,0,3,1,1,2,conditionsFile1.csv,1,0,1,0,1,0,conditions1.csv,"If you see a circle: 
always respond with the letter  C. 

If you see a square:
respond with the letter  M  only if the triangle is in the middle. 

DO NOT press anything if the triangle is positioned on the right.",1,0,80,36,1,79,0.195,
,,,,,,,,,,,square.jpg,0.1,0,none,023,2019-06-09_22h12.34.995,Primed GoNogo,3.0.4,60,,,,,,,,,,,,,,,,1,1,0,2,1,1,1,conditionsMaster2.csv,1,0,3,1,1,2,conditionsFile1.csv,1,0,1,0,1,0,conditions1.csv,"If you see a circle: 
always respond with the letter  C. 

If you see a square:
respond with the letter  M  only if the triangle is in the middle. 

DO NOT press anything if the triangle is positioned on the right.",1,0,80,11,1,79,,
,,,,,,,,,,,circle.jpg,0,0,c,023,2019-06-09_22h12.34.995,Primed GoNogo,3.0.4,60,,,,,,,,,,,,,,,c,1,1,0,2,1,1,1,conditionsMaster2.csv,1,0,3,1,1,2,conditionsFile1.csv,1,0,1,0,1,0,conditions1.csv,"If you see a circle: 
always respond with the letter  C. 

If you see a square:
respond with the letter  M  only if the triangle is in the middle. 

DO NOT press anything if the triangle is positioned on the right.",1,0,80,78,1,79,0.28,
,,,,,,,,,,,square.jpg,0,0,m,023,2019-06-09_22h12.34.995,Primed GoNogo,3.0.4,60,,,,,,,,,,,,,,,m,1,1,0,2,1,1,1,conditionsMaster2.csv,1,0,3,1,1,2,conditionsFile1.csv,1,0,1,0,1,0,conditions1.csv,"If you see a circle: 
always respond with the letter  C. 

If you see a square:
respond with the letter  M  only if the triangle is in the middle. 

DO NOT press anything if the triangle is positioned on the right.",1,0,80,24,1,79,0.33,
,,,,,,,,,,,square.jpg,0,0,m,023,2019-06-09_22h12.34.995,Primed GoNogo,3.0.4,60,,,,,,,,,,,,,,,m,1,1,0,2,1,1,1,conditionsMaster2.csv,1,0,3,1,1,2,conditionsFile1.csv,1,0,1,0,1,0,conditions1.csv,"If you see a circle: 
always respond with the letter  C. 

If you see a square:
respond with the letter  M  only if the triangle is in the middle. 

DO NOT press anything if the triangle is positioned on the right.",1,0,80,74,1,79,0.331,
,,,,,,,,,,,square.jpg,0,0,m,023,2019-06-09_22h12.34.995,Primed GoNogo,3.0.4,60,,,,,,,,,,,,,,,m,1,1,0,2,1,1,1,conditionsMaster2.csv,1,0,3,1,1,2,conditionsFile1.csv,1,0,1,0,1,0,conditions1.csv,"If you see a circle: 
always respond with the letter  C. 

If you see a square:
respond with the letter  M  only if the triangle is in the middle. 

DO NOT press anything if the triangle is positioned on the right.",1,0,80,10,1,79,0.412,
,,,,,,,,,,,circle.jpg,-0.1,0,c,023,2019-06-09_22h12.34.995,Primed GoNogo,3.0.4,60,,,,,,,,,,,,,,,c,1,1,0,2,1,1,1,conditionsMaster2.csv,1,0,3,1,1,2,conditionsFile1.csv,1,0,1,0,1,0,conditions1.csv,"If you see a circle: 
always respond with the letter  C. 

If you see a square:
respond with the letter  M  only if the triangle is in the middle. 

DO NOT press anything if the triangle is positioned on the right.",1,0,80,39,1,79,0.244,
,,,,,,,,,,,square.jpg,0,0,m,023,2019-06-09_22h12.34.995,Primed GoNogo,3.0.4,60,,,,,,,,,,,,,,,m,1,1,0,2,1,1,1,conditionsMaster2.csv,1,0,3,1,1,2,conditionsFile1.csv,1,0,1,0,1,0,conditions1.csv,"If you see a circle: 
always respond with the letter  C. 

If you see a square:
respond with the letter  M  only if the triangle is in the middle. 

DO NOT press anything if the triangle is positioned on the right.",1,0,80,42,1,79,0.412,
,,,,,,,,,,,circle.jpg,0,0,c,023,2019-06-09_22h12.34.995,Primed GoNogo,3.0.4,60,,,,,,,,,,,,,,,c,1,1,0,2,1,1,1,conditionsMaster2.csv,1,0,3,1,1,2,conditionsFile1.csv,1,0,1,0,1,0,conditions1.csv,"If you see a circle: 
always respond with the letter  C. 

If you see a square:
respond with the letter  M  only if the triangle is in the middle. 

DO NOT press anything if the triangle is positioned on the right.",1,0,80,44,1,79,0.214,
,,,,,,,,,,,circle.jpg,0,0,c,023,2019-06-09_22h12.34.995,Primed GoNogo,3.0.4,60,,,,,,,,,,,,,,m,,0,1,0,2,1,1,1,conditionsMaster2.csv,1,0,3,1,1,2,conditionsFile1.csv,1,0,1,0,1,0,conditions1.csv,"If you see a circle: 
always respond with the letter  C. 

If you see a square:
respond with the letter  M  only if the triangle is in the middle. 

DO NOT press anything if the triangle is positioned on the right.",1,0,80,69,1,79,,0.929
,,,,,,,,,,,square.jpg,0,0,m,023,2019-06-09_22h12.34.995,Primed GoNogo,3.0.4,60,,,,,,,,,,,,,,,m,1,1,0,2,1,1,1,conditionsMaster2.csv,1,0,3,1,1,2,conditionsFile1.csv,1,0,1,0,1,0,conditions1.csv,"If you see a circle: 
always respond with the letter  C. 

If you see a square:
respond with the letter  M  only if the triangle is in the middle. 

DO NOT press anything if the triangle is positioned on the right.",1,0,80,34,1,79,0.496,
,,,,,,,,,,,square.jpg,0.1,0,none,023,2019-06-09_22h12.34.995,Primed GoNogo,3.0.4,60,,,,,,,,,,,,,,,,1,1,0,2,1,1,1,conditionsMaster2.csv,1,0,3,1,1,2,conditionsFile1.csv,1,0,1,0,1,0,conditions1.csv,"If you see a circle: 
always respond with the letter  C. 

If you see a square:
respond with the letter  M  only if the triangle is in the middle. 

DO NOT press anything if the triangle is positioned on the right.",1,0,80,51,1,79,,
,,,,,,,,,,,circle.jpg,0,0,c,023,2019-06-09_22h12.34.995,Primed GoNogo,3.0.4,60,,,,,,,,,,,,,,,,0,1,0,2,1,1,1,conditionsMaster2.csv,1,0,3,1,1,2,conditionsFile1.csv,1,0,1,0,1,0,conditions1.csv,"If you see a circle: 
always respond with the letter  C. 

If you see a square:
respond with the letter  M  only if the triangle is in the middle. 

DO NOT press anything if the triangle is positioned on the right.",1,0,80,52,1,79,,
,,,,,,,,,,,circle.jpg,-0.1,0,c,023,2019-06-09_22h12.34.995,Primed GoNogo,3.0.4,60,,,,,,,,,,,,,,,c,1,1,0,2,1,1,1,conditionsMaster2.csv,1,0,3,1,1,2,conditionsFile1.csv,1,0,1,0,1,0,conditions1.csv,"If you see a circle: 
always respond with the letter  C. 

If you see a square:
respond with the letter  M  only if the triangle is in the middle. 

DO NOT press anything if the triangle is positioned on the right.",1,0,80,47,1,79,0.279,
,,,,,,,,,,,square.jpg,0,0,m,023,2019-06-09_22h12.34.995,Primed GoNogo,3.0.4,60,,,,,,,,,,,,,,,m,1,1,0,2,1,1,1,conditionsMaster2.csv,1,0,3,1,1,2,conditionsFile1.csv,1,0,1,0,1,0,conditions1.csv,"If you see a circle: 
always respond with the letter  C. 

If you see a square:
respond with the letter  M  only if the triangle is in the middle. 

DO NOT press anything if the triangle is positioned on the right.",1,0,80,9,1,79,0.28,
,,,,,,,,,,,square.jpg,0.1,0,none,023,2019-06-09_22h12.34.995,Primed GoNogo,3.0.4,60,,,,,,,,,,,,,,,,1,1,0,2,1,1,1,conditionsMaster2.csv,1,0,3,1,1,2,conditionsFile1.csv,1,0,1,0,1,0,conditions1.csv,"If you see a circle: 
always respond with the letter  C. 

If you see a square:
respond with the letter  M  only if the triangle is in the middle. 

DO NOT press anything if the triangle is positioned on the right.",1,0,80,75,1,79,,
,,,,,,,,,,,circle.jpg,-0.1,0,c,023,2019-06-09_22h12.34.995,Primed GoNogo,3.0.4,60,,,,,,,,,,,,,,,c,1,1,0,2,1,1,1,conditionsMaster2.csv,1,0,3,1,1,2,conditionsFile1.csv,1,0,1,0,1,0,conditions1.csv,"If you see a circle: 
always respond with the letter  C. 

If you see a square:
respond with the letter  M  only if the triangle is in the middle. 

DO NOT press anything if the triangle is positioned on the right.",1,0,80,79,1,79,0.296,
,,,,,,,,,,,circle.jpg,0,0,c,023,2019-06-09_22h12.34.995,Primed GoNogo,3.0.4,60,,,,,,,,,,,,,,,c,1,1,0,2,1,1,1,conditionsMaster2.csv,1,0,3,1,1,2,conditionsFile1.csv,1,0,1,0,1,0,conditions1.csv,"If you see a circle: 
always respond with the letter  C. 

If you see a square:
respond with the letter  M  only if the triangle is in the middle. 

DO NOT press anything if the triangle is positioned on the right.",1,0,80,46,1,79,0.464,
,,,,,,,,,,,square.jpg,0,0,m,023,2019-06-09_22h12.34.995,Primed GoNogo,3.0.4,60,,,,,,,,,,,,,,,m,1,1,0,2,1,1,1,conditionsMaster2.csv,1,0,3,1,1,2,conditionsFile1.csv,1,0,1,0,1,0,conditions1.csv,"If you see a circle: 
always respond with the letter  C. 

If you see a square:
respond with the letter  M  only if the triangle is in the middle. 

DO NOT press anything if the triangle is positioned on the right.",1,0,80,58,1,79,0.464,
,,,,,,,,,,,circle.jpg,0,0,c,023,2019-06-09_22h12.34.995,Primed GoNogo,3.0.4,60,,,,,,,,,,,,,,,c,1,1,0,2,1,1,1,conditionsMaster2.csv,1,0,3,1,1,2,conditionsFile1.csv,1,0,1,0,1,0,conditions1.csv,"If you see a circle: 
always respond with the letter  C. 

If you see a square:
respond with the letter  M  only if the triangle is in the middle. 

DO NOT press anything if the triangle is positioned on the right.",1,0,80,5,1,79,0.379,
,,,,,,,,,,,square.jpg,0.1,0,none,023,2019-06-09_22h12.34.995,Primed GoNogo,3.0.4,60,,,,,,,,,,,,,,,m,0,1,0,2,1,1,1,conditionsMaster2.csv,1,0,3,1,1,2,conditionsFile1.csv,1,0,1,0,1,0,conditions1.csv,"If you see a circle: 
always respond with the letter  C. 

If you see a square:
respond with the letter  M  only if the triangle is in the middle. 

DO NOT press anything if the triangle is positioned on the right.",1,0,80,59,1,79,0.312,
,,,,,,,,,,,square.jpg,0,0,m,023,2019-06-09_22h12.34.995,Primed GoNogo,3.0.4,60,,,,,,,,,,,,,,,m,1,1,0,2,1,1,1,conditionsMaster2.csv,1,0,3,1,1,2,conditionsFile1.csv,1,0,1,0,1,0,conditions1.csv,"If you see a circle: 
always respond with the letter  C. 

If you see a square:
respond with the letter  M  only if the triangle is in the middle. 

DO NOT press anything if the triangle is positioned on the right.",1,0,80,17,1,79,0.581,
,,,,,,,,,,,square.jpg,0,0,m,023,2019-06-09_22h12.34.995,Primed GoNogo,3.0.4,60,,,,,,,,,,,,,,,m,1,1,0,2,1,1,1,conditionsMaster2.csv,1,0,3,1,1,2,conditionsFile1.csv,1,0,1,0,1,0,conditions1.csv,"If you see a circle: 
always respond with the letter  C. 

If you see a square:
respond with the letter  M  only if the triangle is in the middle. 

DO NOT press anything if the triangle is positioned on the right.",1,0,80,0,1,79,0.362,
,,,,,,,,,,,square.jpg,0.1,0,none,023,2019-06-09_22h12.34.995,Primed GoNogo,3.0.4,60,,,,,,,,,,,,,,,,1,1,0,2,1,1,1,conditionsMaster2.csv,1,0,3,1,1,2,conditionsFile1.csv,1,0,1,0,1,0,conditions1.csv,"If you see a circle: 
always respond with the letter  C. 

If you see a square:
respond with the letter  M  only if the triangle is in the middle. 

DO NOT press anything if the triangle is positioned on the right.",1,0,80,3,1,79,,
,,,,,,,,,,,square.jpg,0,0,m,023,2019-06-09_22h12.34.995,Primed GoNogo,3.0.4,60,,,,,,,,,,,,,,,m,1,1,0,2,1,1,1,conditionsMaster2.csv,1,0,3,1,1,2,conditionsFile1.csv,1,0,1,0,1,0,conditions1.csv,"If you see a circle: 
always respond with the letter  C. 

If you see a square:
respond with the letter  M  only if the triangle is in the middle. 

DO NOT press anything if the triangle is positioned on the right.",1,0,80,18,1,79,0.411,
,,,,,,,,,,,square.jpg,0,0,m,023,2019-06-09_22h12.34.995,Primed GoNogo,3.0.4,60,,,,,,,,,,,,,,,m,1,1,0,2,1,1,1,conditionsMaster2.csv,1,0,3,1,1,2,conditionsFile1.csv,1,0,1,0,1,0,conditions1.csv,"If you see a circle: 
always respond with the letter  C. 

If you see a square:
respond with the letter  M  only if the triangle is in the middle. 

DO NOT press anything if the triangle is positioned on the right.",1,0,80,8,1,79,0.499,
,,,,,,,,,,,circle.jpg,0,0,c,023,2019-06-09_22h12.34.995,Primed GoNogo,3.0.4,60,,,,,,,,,,,,,,,m,0,1,0,2,1,1,1,conditionsMaster2.csv,1,0,3,1,1,2,conditionsFile1.csv,1,0,1,0,1,0,conditions1.csv,"If you see a circle: 
always respond with the letter  C. 

If you see a square:
respond with the letter  M  only if the triangle is in the middle. 

DO NOT press anything if the triangle is positioned on the right.",1,0,80,60,1,79,0.495,
,,,,,,,,,,,square.jpg,0,0,m,023,2019-06-09_22h12.34.995,Primed GoNogo,3.0.4,60,,,,,,,,,,,,,,,c,0,1,0,2,1,1,1,conditionsMaster2.csv,1,0,3,1,1,2,conditionsFile1.csv,1,0,1,0,1,0,conditions1.csv,"If you see a circle: 
always respond with the letter  C. 

If you see a square:
respond with the letter  M  only if the triangle is in the middle. 

DO NOT press anything if the triangle is positioned on the right.",1,0,80,50,1,79,0.462,
,,,,,,,,,,,circle.jpg,-0.1,0,c,023,2019-06-09_22h12.34.995,Primed GoNogo,3.0.4,60,,,,,,,,,,,,,,,c,1,1,0,2,1,1,1,conditionsMaster2.csv,1,0,3,1,1,2,conditionsFile1.csv,1,0,1,0,1,0,conditions1.csv,"If you see a circle: 
always respond with the letter  C. 

If you see a square:
respond with the letter  M  only if the triangle is in the middle. 

DO NOT press anything if the triangle is positioned on the right.",1,0,80,55,1,79,0.546,
,,,,,,,,,,,square.jpg,0,0,m,023,2019-06-09_22h12.34.995,Primed GoNogo,3.0.4,60,,,,,,,,,,,,,,,m,1,1,0,2,1,1,1,conditionsMaster2.csv,1,0,3,1,1,2,conditionsFile1.csv,1,0,1,0,1,0,conditions1.csv,"If you see a circle: 
always respond with the letter  C. 

If you see a square:
respond with the letter  M  only if the triangle is in the middle. 

DO NOT press anything if the triangle is positioned on the right.",1,0,80,65,1,79,0.43,
,,,,,,,,,,,circle.jpg,-0.1,0,c,023,2019-06-09_22h12.34.995,Primed GoNogo,3.0.4,60,,,,,,,,,,,,,,,c,1,1,0,2,1,1,1,conditionsMaster2.csv,1,0,3,1,1,2,conditionsFile1.csv,1,0,1,0,1,0,conditions1.csv,"If you see a circle: 
always respond with the letter  C. 

If you see a square:
respond with the letter  M  only if the triangle is in the middle. 

DO NOT press anything if the triangle is positioned on the right.",1,0,80,63,1,79,0.279,
,,,,,,,,,,,square.jpg,0,0,m,023,2019-06-09_22h12.34.995,Primed GoNogo,3.0.4,60,,,,,,,,,,,,,,,m,1,1,0,2,1,1,1,conditionsMaster2.csv,1,0,3,1,1,2,conditionsFile1.csv,1,0,1,0,1,0,conditions1.csv,"If you see a circle: 
always respond with the letter  C. 

If you see a square:
respond with the letter  M  only if the triangle is in the middle. 

DO NOT press anything if the triangle is positioned on the right.",1,0,80,16,1,79,0.463,
,,,,,,,,,,,square.jpg,0,0,m,023,2019-06-09_22h12.34.995,Primed GoNogo,3.0.4,60,,,,,,,,,,,,,,,m,1,1,0,2,1,1,1,conditionsMaster2.csv,1,0,3,1,1,2,conditionsFile1.csv,1,0,1,0,1,0,conditions1.csv,"If you see a circle: 
always respond with the letter  C. 

If you see a square:
respond with the letter  M  only if the triangle is in the middle. 

DO NOT press anything if the triangle is positioned on the right.",1,0,80,32,1,79,0.428,
,,,,,,,,,,,circle.jpg,0,0,c,023,2019-06-09_22h12.34.995,Primed GoNogo,3.0.4,60,,,,,,,,,,,,,,,c,1,1,0,2,1,1,1,conditionsMaster2.csv,1,0,3,1,1,2,conditionsFile1.csv,1,0,1,0,1,0,conditions1.csv,"If you see a circle: 
always respond with the letter  C. 

If you see a square:
respond with the letter  M  only if the triangle is in the middle. 

DO NOT press anything if the triangle is positioned on the right.",1,0,80,62,1,79,0.428,
,,,,,,,,,,,circle.jpg,0,0,c,023,2019-06-09_22h12.34.995,Primed GoNogo,3.0.4,60,,,,,,,,,,,,,,,c,1,1,0,2,1,1,1,conditionsMaster2.csv,1,0,3,1,1,2,conditionsFile1.csv,1,0,1,0,1,0,conditions1.csv,"If you see a circle: 
always respond with the letter  C. 

If you see a square:
respond with the letter  M  only if the triangle is in the middle. 

DO NOT press anything if the triangle is positioned on the right.",1,0,80,37,1,79,0.33,
,,,,,,,,,,,circle.jpg,0,0,c,023,2019-06-09_22h12.34.995,Primed GoNogo,3.0.4,60,,,,,,,,,,,,,,,c,1,1,0,2,1,1,1,conditionsMaster2.csv,1,0,3,1,1,2,conditionsFile1.csv,1,0,1,0,1,0,conditions1.csv,"If you see a circle: 
always respond with the letter  C. 

If you see a square:
respond with the letter  M  only if the triangle is in the middle. 

DO NOT press anything if the triangle is positioned on the right.",1,0,80,21,1,79,0.346,
,,,,,,,,,,,circle.jpg,0,0,c,023,2019-06-09_22h12.34.995,Primed GoNogo,3.0.4,60,,,,,,,,,,,,,,m,m,0,1,0,2,1,1,1,conditionsMaster2.csv,1,0,3,1,1,2,conditionsFile1.csv,1,0,1,0,1,0,conditions1.csv,"If you see a circle: 
always respond with the letter  C. 

If you see a square:
respond with the letter  M  only if the triangle is in the middle. 

DO NOT press anything if the triangle is positioned on the right.",1,0,80,77,1,79,0.379,0.296
,,,,,,,,,,,circle.jpg,0,0,c,023,2019-06-09_22h12.34.995,Primed GoNogo,3.0.4,60,,,,,,,,,,,,,,,c,1,1,0,2,1,1,1,conditionsMaster2.csv,1,0,3,1,1,2,conditionsFile1.csv,1,0,1,0,1,0,conditions1.csv,"If you see a circle: 
always respond with the letter  C. 

If you see a square:
respond with the letter  M  only if the triangle is in the middle. 

DO NOT press anything if the triangle is positioned on the right.",1,0,80,22,1,79,0.311,
,,,,,,,,,,,circle.jpg,0,0,c,023,2019-06-09_22h12.34.995,Primed GoNogo,3.0.4,60,,,,,,,,,,,,,,,c,1,1,0,2,1,1,1,conditionsMaster2.csv,1,0,3,1,1,2,conditionsFile1.csv,1,0,1,0,1,0,conditions1.csv,"If you see a circle: 
always respond with the letter  C. 

If you see a square:
respond with the letter  M  only if the triangle is in the middle. 

DO NOT press anything if the triangle is positioned on the right.",1,0,80,30,1,79,0.396,
,,,,,,,,,,,circle.jpg,0,0,c,023,2019-06-09_22h12.34.995,Primed GoNogo,3.0.4,60,,,,,,,,,,,,,,,c,1,1,0,2,1,1,1,conditionsMaster2.csv,1,0,3,1,1,2,conditionsFile1.csv,1,0,1,0,1,0,conditions1.csv,"If you see a circle: 
always respond with the letter  C. 

If you see a square:
respond with the letter  M  only if the triangle is in the middle. 

DO NOT press anything if the triangle is positioned on the right.",1,0,80,45,1,79,0.364,
,,,,,,,,,,,circle.jpg,0,0,c,023,2019-06-09_22h12.34.995,Primed GoNogo,3.0.4,60,,,,,,,,,,,,,,,c,1,1,0,2,1,1,1,conditionsMaster2.csv,1,0,3,1,1,2,conditionsFile1.csv,1,0,1,0,1,0,conditions1.csv,"If you see a circle: 
always respond with the letter  C. 

If you see a square:
respond with the letter  M  only if the triangle is in the middle. 

DO NOT press anything if the triangle is positioned on the right.",1,0,80,28,1,79,0.414,
,,,,,,,,,,,square.jpg,0,0,m,023,2019-06-09_22h12.34.995,Primed GoNogo,3.0.4,60,,,,,,,,,,,,,,,m,1,1,0,2,1,1,1,conditionsMaster2.csv,1,0,3,1,1,2,conditionsFile1.csv,1,0,1,0,1,0,conditions1.csv,"If you see a circle: 
always respond with the letter  C. 

If you see a square:
respond with the letter  M  only if the triangle is in the middle. 

DO NOT press anything if the triangle is positioned on the right.",1,0,80,66,1,79,0.444,
,,,,,,,,,,,circle.jpg,0,0,c,023,2019-06-09_22h12.34.995,Primed GoNogo,3.0.4,60,,,,,,,,,,,,,,,c,1,1,0,2,1,1,1,conditionsMaster2.csv,1,0,3,1,1,2,conditionsFile1.csv,1,0,1,0,1,0,conditions1.csv,"If you see a circle: 
always respond with the letter  C. 

If you see a square:
respond with the letter  M  only if the triangle is in the middle. 

DO NOT press anything if the triangle is positioned on the right.",1,0,80,38,1,79,0.297,
,,,,,,,,,,,square.jpg,0.1,0,none,023,2019-06-09_22h12.34.995,Primed GoNogo,3.0.4,60,,,,,,,,,,,,,,,,1,1,0,2,1,1,1,conditionsMaster2.csv,1,0,3,1,1,2,conditionsFile1.csv,1,0,1,0,1,0,conditions1.csv,"If you see a circle: 
always respond with the letter  C. 

If you see a square:
respond with the letter  M  only if the triangle is in the middle. 

DO NOT press anything if the triangle is positioned on the right.",1,0,80,27,1,79,,
,,,,,,,,,,,square.jpg,0.1,0,none,023,2019-06-09_22h12.34.995,Primed GoNogo,3.0.4,60,,,,,,,,,,,,,,,m,0,1,0,2,1,1,1,conditionsMaster2.csv,1,0,3,1,1,2,conditionsFile1.csv,1,0,1,0,1,0,conditions1.csv,"If you see a circle: 
always respond with the letter  C. 

If you see a square:
respond with the letter  M  only if the triangle is in the middle. 

DO NOT press anything if the triangle is positioned on the right.",1,0,80,43,1,79,0.38,
,,,,,,,,,,,circle.jpg,0,0,c,023,2019-06-09_22h12.34.995,Primed GoNogo,3.0.4,60,,,,,,,,,,,,,,,c,1,1,0,2,1,1,1,conditionsMaster2.csv,1,0,3,1,1,2,conditionsFile1.csv,1,0,1,0,1,0,conditions1.csv,"If you see a circle: 
always respond with the letter  C. 

If you see a square:
respond with the letter  M  only if the triangle is in the middle. 

DO NOT press anything if the triangle is positioned on the right.",1,0,80,54,1,79,0.33,
,,,,,,,,,,,square.jpg,0,0,m,023,2019-06-09_22h12.34.995,Primed GoNogo,3.0.4,60,,,,,,,,,,,,,,,m,1,1,0,2,1,1,1,conditionsMaster2.csv,1,0,3,1,1,2,conditionsFile1.csv,1,0,1,0,1,0,conditions1.csv,"If you see a circle: 
always respond with the letter  C. 

If you see a square:
respond with the letter  M  only if the triangle is in the middle. 

DO NOT press anything if the triangle is positioned on the right.",1,0,80,2,1,79,0.345,
,,,,,,,,,,,circle.jpg,-0.1,0,c,023,2019-06-09_22h12.34.995,Primed GoNogo,3.0.4,60,,,,,,,,,,,,,,,c,1,1,0,2,1,1,1,conditionsMaster2.csv,1,0,3,1,1,2,conditionsFile1.csv,1,0,1,0,1,0,conditions1.csv,"If you see a circle: 
always respond with the letter  C. 

If you see a square:
respond with the letter  M  only if the triangle is in the middle. 

DO NOT press anything if the triangle is positioned on the right.",1,0,80,7,1,79,0.33,
,,,,,,,,,,,circle.jpg,-0.1,0,c,023,2019-06-09_22h12.34.995,Primed GoNogo,3.0.4,60,,,,,,,,,,,,,,,c,1,1,0,2,1,1,1,conditionsMaster2.csv,1,0,3,1,1,2,conditionsFile1.csv,1,0,1,0,1,0,conditions1.csv,"If you see a circle: 
always respond with the letter  C. 

If you see a square:
respond with the letter  M  only if the triangle is in the middle. 

DO NOT press anything if the triangle is positioned on the right.",1,0,80,71,1,79,0.298,
,,,,,,,,,,,circle.jpg,0,0,c,023,2019-06-09_22h12.34.995,Primed GoNogo,3.0.4,60,,,,,,,,,,,,,,,c,1,1,0,2,1,1,1,conditionsMaster2.csv,1,0,3,1,1,2,conditionsFile1.csv,1,0,1,0,1,0,conditions1.csv,"If you see a circle: 
always respond with the letter  C. 

If you see a square:
respond with the letter  M  only if the triangle is in the middle. 

DO NOT press anything if the triangle is positioned on the right.",1,0,80,76,1,79,0.248,
,,,,,,,,,,,circle.jpg,0,0,c,023,2019-06-09_22h12.34.995,Primed GoNogo,3.0.4,60,,,,,,,,,,,,,,,c,1,1,0,2,1,1,1,conditionsMaster2.csv,1,0,3,1,1,2,conditionsFile1.csv,1,0,1,0,1,0,conditions1.csv,"If you see a circle: 
always respond with the letter  C. 

If you see a square:
respond with the letter  M  only if the triangle is in the middle. 

DO NOT press anything if the triangle is positioned on the right.",1,0,80,61,1,79,0.312,
,,,,,,,,,,,circle.jpg,0,0,c,023,2019-06-09_22h12.34.995,Primed GoNogo,3.0.4,60,,,,,,,,,,,,,,,c,1,1,0,2,1,1,1,conditionsMaster2.csv,1,0,3,1,1,2,conditionsFile1.csv,1,0,1,0,1,0,conditions1.csv,"If you see a circle: 
always respond with the letter  C. 

If you see a square:
respond with the letter  M  only if the triangle is in the middle. 

DO NOT press anything if the triangle is positioned on the right.",1,0,80,20,1,79,0.379,
,,,,,,,,,,,circle.jpg,0,0,c,023,2019-06-09_22h12.34.995,Primed GoNogo,3.0.4,60,,,,,,,,,,,,,,,c,1,1,0,2,1,1,1,conditionsMaster2.csv,1,0,3,1,1,2,conditionsFile1.csv,1,0,1,0,1,0,conditions1.csv,"If you see a circle: 
always respond with the letter  C. 

If you see a square:
respond with the letter  M  only if the triangle is in the middle. 

DO NOT press anything if the triangle is positioned on the right.",1,0,80,68,1,79,0.332,
,,,,,,,,,,,circle.jpg,-0.1,0,c,023,2019-06-09_22h12.34.995,Primed GoNogo,3.0.4,60,,,,,,,,,,,,,,,c,1,1,0,2,1,1,1,conditionsMaster2.csv,1,0,3,1,1,2,conditionsFile1.csv,1,0,1,0,1,0,conditions1.csv,"If you see a circle: 
always respond with the letter  C. 

If you see a square:
respond with the letter  M  only if the triangle is in the middle. 

DO NOT press anything if the triangle is positioned on the right.",1,0,80,15,1,79,0.397,
,,,,,,,,,,,circle.jpg,0,0,c,023,2019-06-09_22h12.34.995,Primed GoNogo,3.0.4,60,,,,,,,,,,,,,,,c,1,1,0,2,1,1,1,conditionsMaster2.csv,1,0,3,1,1,2,conditionsFile1.csv,1,0,1,0,1,0,conditions1.csv,"If you see a circle: 
always respond with the letter  C. 

If you see a square:
respond with the letter  M  only if the triangle is in the middle. 

DO NOT press anything if the triangle is positioned on the right.",1,0,80,14,1,79,0.28,
,,,,,,,,,,,square.jpg,0.1,0,none,023,2019-06-09_22h12.34.995,Primed GoNogo,3.0.4,60,,,,,,,,,,,,,,,,1,1,0,2,1,1,1,conditionsMaster2.csv,1,0,3,1,1,2,conditionsFile1.csv,1,0,1,0,1,0,conditions1.csv,"If you see a circle: 
always respond with the letter  C. 

If you see a square:
respond with the letter  M  only if the triangle is in the middle. 

DO NOT press anything if the triangle is positioned on the right.",1,0,80,67,1,79,,
,,,,,,,,,,,circle.jpg,0,0,c,023,2019-06-09_22h12.34.995,Primed GoNogo,3.0.4,60,,,,,,,,,,,,,,,c,1,1,0,2,1,1,1,conditionsMaster2.csv,1,0,3,1,1,2,conditionsFile1.csv,1,0,1,0,1,0,conditions1.csv,"If you see a circle: 
always respond with the letter  C. 

If you see a square:
respond with the letter  M  only if the triangle is in the middle. 

DO NOT press anything if the triangle is positioned on the right.",1,0,80,13,1,79,0.365,
,,,,,,,,,,,square.jpg,0,0,m,023,2019-06-09_22h12.34.995,Primed GoNogo,3.0.4,60,,,,,,,,,,,,,,,m,1,1,0,2,1,1,1,conditionsMaster2.csv,1,0,3,1,1,2,conditionsFile1.csv,1,0,1,0,1,0,conditions1.csv,"If you see a circle: 
always respond with the letter  C. 

If you see a square:
respond with the letter  M  only if the triangle is in the middle. 

DO NOT press anything if the triangle is positioned on the right.",1,0,80,56,1,79,0.412,
,,,,,,,,,,,square.jpg,0,0,m,023,2019-06-09_22h12.34.995,Primed GoNogo,3.0.4,60,,,,,,,,,,,,,,,m,1,1,0,2,1,1,1,conditionsMaster2.csv,1,0,3,1,1,2,conditionsFile1.csv,1,0,1,0,1,0,conditions1.csv,"If you see a circle: 
always respond with the letter  C. 

If you see a square:
respond with the letter  M  only if the triangle is in the middle. 

DO NOT press anything if the triangle is positioned on the right.",1,0,80,41,1,79,0.413,
,,,,,,,,,,,circle.jpg,-0.1,0,c,023,2019-06-09_22h12.34.995,Primed GoNogo,3.0.4,60,,,,,,,,,,,,,,,c,1,1,0,2,1,1,1,conditionsMaster2.csv,1,0,3,1,1,2,conditionsFile1.csv,1,0,1,0,1,0,conditions1.csv,"If you see a circle: 
always respond with the letter  C. 

If you see a square:
respond with the letter  M  only if the triangle is in the middle. 

DO NOT press anything if the triangle is positioned on the right.",1,0,80,31,1,79,0.348,
,,,,,,,,,,,square.jpg,0.1,0,none,023,2019-06-09_22h12.34.995,Primed GoNogo,3.0.4,60,,,,,,,,,,,,,,,,1,1,0,2,1,1,1,conditionsMaster2.csv,1,0,3,1,1,2,conditionsFile1.csv,1,0,1,0,1,0,conditions1.csv,"If you see a circle: 
always respond with the letter  C. 

If you see a square:
respond with the letter  M  only if the triangle is in the middle. 

DO NOT press anything if the triangle is positioned on the right.",1,0,80,35,1,79,,
,,,,,,,,,,,square.jpg,0,0,m,023,2019-06-09_22h12.34.995,Primed GoNogo,3.0.4,60,,,,,,,,,,,,,,,m,1,1,0,2,1,1,1,conditionsMaster2.csv,1,0,3,1,1,2,conditionsFile1.csv,1,0,1,0,1,0,conditions1.csv,"If you see a circle: 
always respond with the letter  C. 

If you see a square:
respond with the letter  M  only if the triangle is in the middle. 

DO NOT press anything if the triangle is positioned on the right.",1,0,80,64,1,79,0.414,
,,,,,,,,,,,square.jpg,0,0,m,023,2019-06-09_22h12.34.995,Primed GoNogo,3.0.4,60,,,,,,,,,,,,,,,,0,1,0,2,1,1,1,conditionsMaster2.csv,1,0,3,1,1,2,conditionsFile1.csv,1,0,1,0,1,0,conditions1.csv,"If you see a circle: 
always respond with the letter  C. 

If you see a square:
respond with the letter  M  only if the triangle is in the middle. 

DO NOT press anything if the triangle is positioned on the right.",1,0,80,48,1,79,,
,,,,,,,,,,,square.jpg,0.1,0,none,023,2019-06-09_22h12.34.995,Primed GoNogo,3.0.4,60,,,,,,,,,,,,,,,m,0,1,0,2,1,1,1,conditionsMaster2.csv,1,0,3,1,1,2,conditionsFile1.csv,1,0,1,0,1,0,conditions1.csv,"If you see a circle: 
always respond with the letter  C. 

If you see a square:
respond with the letter  M  only if the triangle is in the middle. 

DO NOT press anything if the triangle is positioned on the right.",1,0,80,19,1,79,0.513,
,,,,,,,,,,,square.jpg,0,0,m,023,2019-06-09_22h12.34.995,Primed GoNogo,3.0.4,60,,,,,,,,,,,,,,,m,1,1,0,2,1,1,1,conditionsMaster2.csv,1,0,3,1,1,2,conditionsFile1.csv,1,0,1,0,1,0,conditions1.csv,"If you see a circle: 
always respond with the letter  C. 

If you see a square:
respond with the letter  M  only if the triangle is in the middle. 

DO NOT press anything if the triangle is positioned on the right.",1,0,80,40,1,79,0.529,
,,,,,,,,,,,square.jpg,0,0,m,023,2019-06-09_22h12.34.995,Primed GoNogo,3.0.4,60,,,,,,,,,,,,,,,m,1,1,0,2,1,1,1,conditionsMaster2.csv,1,0,3,1,1,2,conditionsFile1.csv,1,0,1,0,1,0,conditions1.csv,"If you see a circle: 
always respond with the letter  C. 

If you see a square:
respond with the letter  M  only if the triangle is in the middle. 

DO NOT press anything if the triangle is positioned on the right.",1,0,80,33,1,79,0.414,
,,,,,,,,,,,square.jpg,0,0,m,023,2019-06-09_22h12.34.995,Primed GoNogo,3.0.4,60,,,,,,,,,,,,,,,m,1,1,0,2,1,1,1,conditionsMaster2.csv,1,0,3,1,1,2,conditionsFile1.csv,1,0,1,0,1,0,conditions1.csv,"If you see a circle: 
always respond with the letter  C. 

If you see a square:
respond with the letter  M  only if the triangle is in the middle. 

DO NOT press anything if the triangle is positioned on the right.",1,0,80,72,1,79,0.531,
,,,,,,,,,,,square.jpg,0,0,m,023,2019-06-09_22h12.34.995,Primed GoNogo,3.0.4,60,,,,,,,,,,,,,,,m,1,1,0,2,1,1,1,conditionsMaster2.csv,1,0,3,1,1,2,conditionsFile1.csv,1,0,1,0,1,0,conditions1.csv,"If you see a circle: 
always respond with the letter  C. 

If you see a square:
respond with the letter  M  only if the triangle is in the middle. 

DO NOT press anything if the triangle is positioned on the right.",1,0,80,73,1,79,0.447,
,,,,,,,,,,,square.jpg,0,0,m,023,2019-06-09_22h12.34.995,Primed GoNogo,3.0.4,60,,,,,,,,,,,,,,,,0,1,0,2,1,1,1,conditionsMaster2.csv,1,0,3,1,1,2,conditionsFile1.csv,1,0,1,0,1,0,conditions1.csv,"If you see a circle: 
always respond with the letter  C. 

If you see a square:
respond with the letter  M  only if the triangle is in the middle. 

DO NOT press anything if the triangle is positioned on the right.",1,0,80,26,1,79,,
,,,,,,,,,,,circle.jpg,0,0,c,023,2019-06-09_22h12.34.995,Primed GoNogo,3.0.4,60,,,,,,,,,,,,,,,c,1,1,0,2,1,1,1,conditionsMaster2.csv,1,0,3,1,1,2,conditionsFile1.csv,1,0,1,0,1,0,conditions1.csv,"If you see a circle: 
always respond with the letter  C. 

If you see a square:
respond with the letter  M  only if the triangle is in the middle. 

DO NOT press anything if the triangle is positioned on the right.",1,0,80,12,1,79,0.328,
,,,,,,,,,,,square.jpg,0,0,m,023,2019-06-09_22h12.34.995,Primed GoNogo,3.0.4,60,,,,,,,,,,,,,,,m,1,1,0,2,1,1,1,conditionsMaster2.csv,1,0,3,1,1,2,conditionsFile1.csv,1,0,1,0,1,0,conditions1.csv,"If you see a circle: 
always respond with the letter  C. 

If you see a square:
respond with the letter  M  only if the triangle is in the middle. 

DO NOT press anything if the triangle is positioned on the right.",1,0,80,25,1,79,0.345,
,,,,,,,,,,,circle.jpg,0,0,c,023,2019-06-09_22h12.34.995,Primed GoNogo,3.0.4,60,,,,,,,,,,,,,,,c,1,1,0,2,1,1,1,conditionsMaster2.csv,1,0,3,1,1,2,conditionsFile1.csv,1,0,1,0,1,0,conditions1.csv,"If you see a circle: 
always respond with the letter  C. 

If you see a square:
respond with the letter  M  only if the triangle is in the middle. 

DO NOT press anything if the triangle is positioned on the right.",1,0,80,6,1,79,0.314,
,,,,,,,,,,,square.jpg,0,0,m,023,2019-06-09_22h12.34.995,Primed GoNogo,3.0.4,60,,,,,,,,,,,,,,,m,1,1,0,2,1,1,1,conditionsMaster2.csv,1,0,3,1,1,2,conditionsFile1.csv,1,0,1,0,1,0,conditions1.csv,"If you see a circle: 
always respond with the letter  C. 

If you see a square:
respond with the letter  M  only if the triangle is in the middle. 

DO NOT press anything if the triangle is positioned on the right.",1,0,80,49,1,79,0.362,
,,,,,,,,,,,circle.jpg,0,0,c,023,2019-06-09_22h12.34.995,Primed GoNogo,3.0.4,60,,,,,,,,,,,,,,,c,1,1,0,2,1,1,1,conditionsMaster2.csv,1,0,3,1,1,2,conditionsFile1.csv,1,0,1,0,1,0,conditions1.csv,"If you see a circle: 
always respond with the letter  C. 

If you see a square:
respond with the letter  M  only if the triangle is in the middle. 

DO NOT press anything if the triangle is positioned on the right.",1,0,80,4,1,79,0.329,
,,,,,,,,,,,square.jpg,0,0,m,023,2019-06-09_22h12.34.995,Primed GoNogo,3.0.4,60,,,,,,,,,,,,,,,m,1,1,0,2,1,1,1,conditionsMaster2.csv,1,0,3,1,1,2,conditionsFile1.csv,1,0,1,0,1,0,conditions1.csv,"If you see a circle: 
always respond with the letter  C. 

If you see a square:
respond with the letter  M  only if the triangle is in the middle. 

DO NOT press anything if the triangle is positioned on the right.",1,0,80,57,1,79,0.362,
,,,,,,,,,,,circle.jpg,-0.1,0,c,023,2019-06-09_22h12.34.995,Primed GoNogo,3.0.4,60,,,,,,,,,,,,,,,c,1,1,0,2,1,1,1,conditionsMaster2.csv,1,0,3,1,1,2,conditionsFile1.csv,1,0,1,0,1,0,conditions1.csv,"If you see a circle: 
always respond with the letter  C. 

If you see a square:
respond with the letter  M  only if the triangle is in the middle. 

DO NOT press anything if the triangle is positioned on the right.",1,0,80,23,1,79,0.564,
,,,,,,,,,,,circle.jpg,0,0,c,023,2019-06-09_22h12.34.995,Primed GoNogo,3.0.4,60,,,,,,,,,,,,,,,c,1,1,0,2,1,1,1,conditionsMaster2.csv,1,0,3,1,1,2,conditionsFile1.csv,1,0,1,0,1,0,conditions1.csv,"If you see a circle: 
always respond with the letter  C. 

If you see a square:
respond with the letter  M  only if the triangle is in the middle. 

DO NOT press anything if the triangle is positioned on the right.",1,0,80,70,1,79,0.313,
,,,,,,,,,,,square.jpg,0,0,m,023,2019-06-09_22h12.34.995,Primed GoNogo,3.0.4,60,,,,,,,,,,,,,,,m,1,1,0,2,1,1,1,conditionsMaster2.csv,1,0,3,1,1,2,conditionsFile1.csv,1,0,1,0,1,0,conditions1.csv,"If you see a circle: 
always respond with the letter  C. 

If you see a square:
respond with the letter  M  only if the triangle is in the middle. 

DO NOT press anything if the triangle is positioned on the right.",1,0,80,1,1,79,0.348,
,,,,,,,,,,,circle.jpg,0,0,c,023,2019-06-09_22h12.34.995,Primed GoNogo,3.0.4,60,,,,,,,,,,,,,,,c,1,1,0,2,1,1,1,conditionsMaster2.csv,1,0,3,1,1,2,conditionsFile1.csv,1,0,1,0,1,0,conditions1.csv,"If you see a circle: 
always respond with the letter  C. 

If you see a square:
respond with the letter  M  only if the triangle is in the middle. 

DO NOT press anything if the triangle is positioned on the right.",1,0,80,29,1,79,0.344,
,,,,,,,,,,,circle.jpg,0,0,c,023,2019-06-09_22h12.34.995,Primed GoNogo,3.0.4,60,,,,,,,,,,,,,,,c,1,1,0,2,1,1,1,conditionsMaster2.csv,1,0,3,1,1,2,conditionsFile1.csv,1,0,1,0,1,0,conditions1.csv,"If you see a circle: 
always respond with the letter  C. 

If you see a square:
respond with the letter  M  only if the triangle is in the middle. 

DO NOT press anything if the triangle is positioned on the right.",1,0,80,53,1,79,0.346,
,,,,,,,,,,,,,,,023,2019-06-09_22h12.34.995,Primed GoNogo,3.0.4,60,,,,,,,,,,,,,,,,,1,0,2,1,1,1,conditionsMaster2.csv,1,0,3,1,1,2,conditionsFile1.csv,1,0,1,0,1,0,conditions1.csv,"If you see a circle: 
always respond with the letter  C. 

If you see a square:
respond with the letter  M  only if the triangle is in the middle. 

DO NOT press anything if the triangle is positioned on the right.",,,,,,,,
,,,,,,,,,,,,,,,023,2019-06-09_22h12.34.995,Primed GoNogo,3.0.4,60,,,,,,,,,,,,,,,,,1,0,2,1,1,1,conditionsMaster2.csv,1,0,3,1,1,2,conditionsFile1.csv,,,,,,,,,,,,,,,,
,,,,,,,,,,,circle.jpg,0,0,c,023,2019-06-09_22h12.34.995,Primed GoNogo,3.0.4,60,,,,,,,,,,,,,,,,0,1,0,2,1,1,1,conditionsMaster2.csv,1,0,3,2,1,2,conditionsFile2.csv,1,0,1,0,1,0,conditions2.csv,"If you see a circle: 
respond with the letter  C   only if the triangle is in the middle. 

DO NOT press anything if the triangle is positioned on the left.
 

If you see a square:
Always respond with the letter  M   
",1,0,80,28,1,79,,
,,,,,,,,,,,square.jpg,0,0,m,023,2019-06-09_22h12.34.995,Primed GoNogo,3.0.4,60,,,,,,,,,,,,,,,m,1,1,0,2,1,1,1,conditionsMaster2.csv,1,0,3,2,1,2,conditionsFile2.csv,1,0,1,0,1,0,conditions2.csv,"If you see a circle: 
respond with the letter  C   only if the triangle is in the middle. 

DO NOT press anything if the triangle is positioned on the left.
 

If you see a square:
Always respond with the letter  M   
",1,0,80,40,1,79,0.281,
,,,,,,,,,,,circle.jpg,0,0,c,023,2019-06-09_22h12.34.995,Primed GoNogo,3.0.4,60,,,,,,,,,,,,,,,c,1,1,0,2,1,1,1,conditionsMaster2.csv,1,0,3,2,1,2,conditionsFile2.csv,1,0,1,0,1,0,conditions2.csv,"If you see a circle: 
respond with the letter  C   only if the triangle is in the middle. 

DO NOT press anything if the triangle is positioned on the left.
 

If you see a square:
Always respond with the letter  M   
",1,0,80,22,1,79,0.33,
,,,,,,,,,,,circle.jpg,0,0,c,023,2019-06-09_22h12.34.995,Primed GoNogo,3.0.4,60,,,,,,,,,,,,,,,c,1,1,0,2,1,1,1,conditionsMaster2.csv,1,0,3,2,1,2,conditionsFile2.csv,1,0,1,0,1,0,conditions2.csv,"If you see a circle: 
respond with the letter  C   only if the triangle is in the middle. 

DO NOT press anything if the triangle is positioned on the left.
 

If you see a square:
Always respond with the letter  M   
",1,0,80,37,1,79,0.379,
,,,,,,,,,,,square.jpg,0,0,m,023,2019-06-09_22h12.34.995,Primed GoNogo,3.0.4,60,,,,,,,,,,,,,,,m,1,1,0,2,1,1,1,conditionsMaster2.csv,1,0,3,2,1,2,conditionsFile2.csv,1,0,1,0,1,0,conditions2.csv,"If you see a circle: 
respond with the letter  C   only if the triangle is in the middle. 

DO NOT press anything if the triangle is positioned on the left.
 

If you see a square:
Always respond with the letter  M   
",1,0,80,33,1,79,0.296,
,,,,,,,,,,,square.jpg,0,0,m,023,2019-06-09_22h12.34.995,Primed GoNogo,3.0.4,60,,,,,,,,,,,,,,,m,1,1,0,2,1,1,1,conditionsMaster2.csv,1,0,3,2,1,2,conditionsFile2.csv,1,0,1,0,1,0,conditions2.csv,"If you see a circle: 
respond with the letter  C   only if the triangle is in the middle. 

DO NOT press anything if the triangle is positioned on the left.
 

If you see a square:
Always respond with the letter  M   
",1,0,80,1,1,79,0.296,
,,,,,,,,,,,square.jpg,0,0,m,023,2019-06-09_22h12.34.995,Primed GoNogo,3.0.4,60,,,,,,,,,,,,,,,m,1,1,0,2,1,1,1,conditionsMaster2.csv,1,0,3,2,1,2,conditionsFile2.csv,1,0,1,0,1,0,conditions2.csv,"If you see a circle: 
respond with the letter  C   only if the triangle is in the middle. 

DO NOT press anything if the triangle is positioned on the left.
 

If you see a square:
Always respond with the letter  M   
",1,0,80,2,1,79,0.346,
,,,,,,,,,,,circle.jpg,0,0,c,023,2019-06-09_22h12.34.995,Primed GoNogo,3.0.4,60,,,,,,,,,,,,,,,c,1,1,0,2,1,1,1,conditionsMaster2.csv,1,0,3,2,1,2,conditionsFile2.csv,1,0,1,0,1,0,conditions2.csv,"If you see a circle: 
respond with the letter  C   only if the triangle is in the middle. 

DO NOT press anything if the triangle is positioned on the left.
 

If you see a square:
Always respond with the letter  M   
",1,0,80,70,1,79,0.397,
,,,,,,,,,,,square.jpg,0,0,m,023,2019-06-09_22h12.34.995,Primed GoNogo,3.0.4,60,,,,,,,,,,,,,,,m,1,1,0,2,1,1,1,conditionsMaster2.csv,1,0,3,2,1,2,conditionsFile2.csv,1,0,1,0,1,0,conditions2.csv,"If you see a circle: 
respond with the letter  C   only if the triangle is in the middle. 

DO NOT press anything if the triangle is positioned on the left.
 

If you see a square:
Always respond with the letter  M   
",1,0,80,18,1,79,0.412,
,,,,,,,,,,,square.jpg,0,0,m,023,2019-06-09_22h12.34.995,Primed GoNogo,3.0.4,60,,,,,,,,,,,,,,,m,1,1,0,2,1,1,1,conditionsMaster2.csv,1,0,3,2,1,2,conditionsFile2.csv,1,0,1,0,1,0,conditions2.csv,"If you see a circle: 
respond with the letter  C   only if the triangle is in the middle. 

DO NOT press anything if the triangle is positioned on the left.
 

If you see a square:
Always respond with the letter  M   
",1,0,80,9,1,79,0.547,
,,,,,,,,,,,circle.jpg,0,0,c,023,2019-06-09_22h12.34.995,Primed GoNogo,3.0.4,60,,,,,,,,,,,,,,,,0,1,0,2,1,1,1,conditionsMaster2.csv,1,0,3,2,1,2,conditionsFile2.csv,1,0,1,0,1,0,conditions2.csv,"If you see a circle: 
respond with the letter  C   only if the triangle is in the middle. 

DO NOT press anything if the triangle is positioned on the left.
 

If you see a square:
Always respond with the letter  M   
",1,0,80,12,1,79,,
,,,,,,,,,,,circle.jpg,0,0,c,023,2019-06-09_22h12.34.995,Primed GoNogo,3.0.4,60,,,,,,,,,,,,,,,c,1,1,0,2,1,1,1,conditionsMaster2.csv,1,0,3,2,1,2,conditionsFile2.csv,1,0,1,0,1,0,conditions2.csv,"If you see a circle: 
respond with the letter  C   only if the triangle is in the middle. 

DO NOT press anything if the triangle is positioned on the left.
 

If you see a square:
Always respond with the letter  M   
",1,0,80,36,1,79,0.381,
,,,,,,,,,,,square.jpg,0,0,m,023,2019-06-09_22h12.34.995,Primed GoNogo,3.0.4,60,,,,,,,,,,,,,,,m,1,1,0,2,1,1,1,conditionsMaster2.csv,1,0,3,2,1,2,conditionsFile2.csv,1,0,1,0,1,0,conditions2.csv,"If you see a circle: 
respond with the letter  C   only if the triangle is in the middle. 

DO NOT press anything if the triangle is positioned on the left.
 

If you see a square:
Always respond with the letter  M   
",1,0,80,50,1,79,0.228,
,,,,,,,,,,,circle.jpg,0,0,c,023,2019-06-09_22h12.34.995,Primed GoNogo,3.0.4,60,,,,,,,,,,,,,,,c,1,1,0,2,1,1,1,conditionsMaster2.csv,1,0,3,2,1,2,conditionsFile2.csv,1,0,1,0,1,0,conditions2.csv,"If you see a circle: 
respond with the letter  C   only if the triangle is in the middle. 

DO NOT press anything if the triangle is positioned on the left.
 

If you see a square:
Always respond with the letter  M   
",1,0,80,61,1,79,0.38,
,,,,,,,,,,,square.jpg,0.1,0,m,023,2019-06-09_22h12.34.995,Primed GoNogo,3.0.4,60,,,,,,,,,,,,,,,m,1,1,0,2,1,1,1,conditionsMaster2.csv,1,0,3,2,1,2,conditionsFile2.csv,1,0,1,0,1,0,conditions2.csv,"If you see a circle: 
respond with the letter  C   only if the triangle is in the middle. 

DO NOT press anything if the triangle is positioned on the left.
 

If you see a square:
Always respond with the letter  M   
",1,0,80,35,1,79,0.298,
,,,,,,,,,,,square.jpg,0.1,0,m,023,2019-06-09_22h12.34.995,Primed GoNogo,3.0.4,60,,,,,,,,,,,,,,,m,1,1,0,2,1,1,1,conditionsMaster2.csv,1,0,3,2,1,2,conditionsFile2.csv,1,0,1,0,1,0,conditions2.csv,"If you see a circle: 
respond with the letter  C   only if the triangle is in the middle. 

DO NOT press anything if the triangle is positioned on the left.
 

If you see a square:
Always respond with the letter  M   
",1,0,80,59,1,79,0.43,
,,,,,,,,,,,square.jpg,0,0,m,023,2019-06-09_22h12.34.995,Primed GoNogo,3.0.4,60,,,,,,,,,,,,,,,,0,1,0,2,1,1,1,conditionsMaster2.csv,1,0,3,2,1,2,conditionsFile2.csv,1,0,1,0,1,0,conditions2.csv,"If you see a circle: 
respond with the letter  C   only if the triangle is in the middle. 

DO NOT press anything if the triangle is positioned on the left.
 

If you see a square:
Always respond with the letter  M   
",1,0,80,0,1,79,,
,,,,,,,,,,,square.jpg,0,0,m,023,2019-06-09_22h12.34.995,Primed GoNogo,3.0.4,60,,,,,,,,,,,,,,,m,1,1,0,2,1,1,1,conditionsMaster2.csv,1,0,3,2,1,2,conditionsFile2.csv,1,0,1,0,1,0,conditions2.csv,"If you see a circle: 
respond with the letter  C   only if the triangle is in the middle. 

DO NOT press anything if the triangle is positioned on the left.
 

If you see a square:
Always respond with the letter  M   
",1,0,80,41,1,79,0.246,
,,,,,,,,,,,square.jpg,0,0,m,023,2019-06-09_22h12.34.995,Primed GoNogo,3.0.4,60,,,,,,,,,,,,,,,m,1,1,0,2,1,1,1,conditionsMaster2.csv,1,0,3,2,1,2,conditionsFile2.csv,1,0,1,0,1,0,conditions2.csv,"If you see a circle: 
respond with the letter  C   only if the triangle is in the middle. 

DO NOT press anything if the triangle is positioned on the left.
 

If you see a square:
Always respond with the letter  M   
",1,0,80,64,1,79,0.345,
,,,,,,,,,,,square.jpg,0.1,0,m,023,2019-06-09_22h12.34.995,Primed GoNogo,3.0.4,60,,,,,,,,,,,,,,,m,1,1,0,2,1,1,1,conditionsMaster2.csv,1,0,3,2,1,2,conditionsFile2.csv,1,0,1,0,1,0,conditions2.csv,"If you see a circle: 
respond with the letter  C   only if the triangle is in the middle. 

DO NOT press anything if the triangle is positioned on the left.
 

If you see a square:
Always respond with the letter  M   
",1,0,80,51,1,79,0.231,
,,,,,,,,,,,square.jpg,0,0,m,023,2019-06-09_22h12.34.995,Primed GoNogo,3.0.4,60,,,,,,,,,,,,,,,m,1,1,0,2,1,1,1,conditionsMaster2.csv,1,0,3,2,1,2,conditionsFile2.csv,1,0,1,0,1,0,conditions2.csv,"If you see a circle: 
respond with the letter  C   only if the triangle is in the middle. 

DO NOT press anything if the triangle is positioned on the left.
 

If you see a square:
Always respond with the letter  M   
",1,0,80,8,1,79,0.329,
,,,,,,,,,,,circle.jpg,-0.1,0,none,023,2019-06-09_22h12.34.995,Primed GoNogo,3.0.4,60,,,,,,,,,,,,,,,,1,1,0,2,1,1,1,conditionsMaster2.csv,1,0,3,2,1,2,conditionsFile2.csv,1,0,1,0,1,0,conditions2.csv,"If you see a circle: 
respond with the letter  C   only if the triangle is in the middle. 

DO NOT press anything if the triangle is positioned on the left.
 

If you see a square:
Always respond with the letter  M   
",1,0,80,63,1,79,,
,,,,,,,,,,,circle.jpg,0,0,c,023,2019-06-09_22h12.34.995,Primed GoNogo,3.0.4,60,,,,,,,,,,,,,,,c,1,1,0,2,1,1,1,conditionsMaster2.csv,1,0,3,2,1,2,conditionsFile2.csv,1,0,1,0,1,0,conditions2.csv,"If you see a circle: 
respond with the letter  C   only if the triangle is in the middle. 

DO NOT press anything if the triangle is positioned on the left.
 

If you see a square:
Always respond with the letter  M   
",1,0,80,60,1,79,0.411,
,,,,,,,,,,,circle.jpg,0,0,c,023,2019-06-09_22h12.34.995,Primed GoNogo,3.0.4,60,,,,,,,,,,,,,,,c,1,1,0,2,1,1,1,conditionsMaster2.csv,1,0,3,2,1,2,conditionsFile2.csv,1,0,1,0,1,0,conditions2.csv,"If you see a circle: 
respond with the letter  C   only if the triangle is in the middle. 

DO NOT press anything if the triangle is positioned on the left.
 

If you see a square:
Always respond with the letter  M   
",1,0,80,6,1,79,0.429,
,,,,,,,,,,,circle.jpg,0,0,c,023,2019-06-09_22h12.34.995,Primed GoNogo,3.0.4,60,,,,,,,,,,,,,,,c,1,1,0,2,1,1,1,conditionsMaster2.csv,1,0,3,2,1,2,conditionsFile2.csv,1,0,1,0,1,0,conditions2.csv,"If you see a circle: 
respond with the letter  C   only if the triangle is in the middle. 

DO NOT press anything if the triangle is positioned on the left.
 

If you see a square:
Always respond with the letter  M   
",1,0,80,30,1,79,0.363,
,,,,,,,,,,,square.jpg,0,0,m,023,2019-06-09_22h12.34.995,Primed GoNogo,3.0.4,60,,,,,,,,,,,,,,,m,1,1,0,2,1,1,1,conditionsMaster2.csv,1,0,3,2,1,2,conditionsFile2.csv,1,0,1,0,1,0,conditions2.csv,"If you see a circle: 
respond with the letter  C   only if the triangle is in the middle. 

DO NOT press anything if the triangle is positioned on the left.
 

If you see a square:
Always respond with the letter  M   
",1,0,80,73,1,79,0.247,
,,,,,,,,,,,square.jpg,0,0,m,023,2019-06-09_22h12.34.995,Primed GoNogo,3.0.4,60,,,,,,,,,,,,,,,m,1,1,0,2,1,1,1,conditionsMaster2.csv,1,0,3,2,1,2,conditionsFile2.csv,1,0,1,0,1,0,conditions2.csv,"If you see a circle: 
respond with the letter  C   only if the triangle is in the middle. 

DO NOT press anything if the triangle is positioned on the left.
 

If you see a square:
Always respond with the letter  M   
",1,0,80,49,1,79,0.08,
,,,,,,,,,,,circle.jpg,0,0,c,023,2019-06-09_22h12.34.995,Primed GoNogo,3.0.4,60,,,,,,,,,,,,,,,c,1,1,0,2,1,1,1,conditionsMaster2.csv,1,0,3,2,1,2,conditionsFile2.csv,1,0,1,0,1,0,conditions2.csv,"If you see a circle: 
respond with the letter  C   only if the triangle is in the middle. 

DO NOT press anything if the triangle is positioned on the left.
 

If you see a square:
Always respond with the letter  M   
",1,0,80,29,1,79,0.23,
,,,,,,,,,,,circle.jpg,0,0,c,023,2019-06-09_22h12.34.995,Primed GoNogo,3.0.4,60,,,,,,,,,,,,,,,c,1,1,0,2,1,1,1,conditionsMaster2.csv,1,0,3,2,1,2,conditionsFile2.csv,1,0,1,0,1,0,conditions2.csv,"If you see a circle: 
respond with the letter  C   only if the triangle is in the middle. 

DO NOT press anything if the triangle is positioned on the left.
 

If you see a square:
Always respond with the letter  M   
",1,0,80,5,1,79,0.347,
,,,,,,,,,,,square.jpg,0,0,m,023,2019-06-09_22h12.34.995,Primed GoNogo,3.0.4,60,,,,,,,,,,,,,,,m,1,1,0,2,1,1,1,conditionsMaster2.csv,1,0,3,2,1,2,conditionsFile2.csv,1,0,1,0,1,0,conditions2.csv,"If you see a circle: 
respond with the letter  C   only if the triangle is in the middle. 

DO NOT press anything if the triangle is positioned on the left.
 

If you see a square:
Always respond with the letter  M   
",1,0,80,17,1,79,0.029,
,,,,,,,,,,,square.jpg,0.1,0,m,023,2019-06-09_22h12.34.995,Primed GoNogo,3.0.4,60,,,,,,,,,,,,,,,m,1,1,0,2,1,1,1,conditionsMaster2.csv,1,0,3,2,1,2,conditionsFile2.csv,1,0,1,0,1,0,conditions2.csv,"If you see a circle: 
respond with the letter  C   only if the triangle is in the middle. 

DO NOT press anything if the triangle is positioned on the left.
 

If you see a square:
Always respond with the letter  M   
",1,0,80,75,1,79,0.245,
,,,,,,,,,,,square.jpg,0.1,0,m,023,2019-06-09_22h12.34.995,Primed GoNogo,3.0.4,60,,,,,,,,,,,,,,,m,1,1,0,2,1,1,1,conditionsMaster2.csv,1,0,3,2,1,2,conditionsFile2.csv,1,0,1,0,1,0,conditions2.csv,"If you see a circle: 
respond with the letter  C   only if the triangle is in the middle. 

DO NOT press anything if the triangle is positioned on the left.
 

If you see a square:
Always respond with the letter  M   
",1,0,80,27,1,79,0.094,
,,,,,,,,,,,circle.jpg,0,0,c,023,2019-06-09_22h12.34.995,Primed GoNogo,3.0.4,60,,,,,,,,,,,,,,,c,1,1,0,2,1,1,1,conditionsMaster2.csv,1,0,3,2,1,2,conditionsFile2.csv,1,0,1,0,1,0,conditions2.csv,"If you see a circle: 
respond with the letter  C   only if the triangle is in the middle. 

DO NOT press anything if the triangle is positioned on the left.
 

If you see a square:
Always respond with the letter  M   
",1,0,80,20,1,79,0.247,
,,,,,,,,,,,square.jpg,0.1,0,m,023,2019-06-09_22h12.34.995,Primed GoNogo,3.0.4,60,,,,,,,,,,,,,,,m,1,1,0,2,1,1,1,conditionsMaster2.csv,1,0,3,2,1,2,conditionsFile2.csv,1,0,1,0,1,0,conditions2.csv,"If you see a circle: 
respond with the letter  C   only if the triangle is in the middle. 

DO NOT press anything if the triangle is positioned on the left.
 

If you see a square:
Always respond with the letter  M   
",1,0,80,11,1,79,0.132,
,,,,,,,,,,,square.jpg,0,0,m,023,2019-06-09_22h12.34.995,Primed GoNogo,3.0.4,60,,,,,,,,,,,,,,,m,1,1,0,2,1,1,1,conditionsMaster2.csv,1,0,3,2,1,2,conditionsFile2.csv,1,0,1,0,1,0,conditions2.csv,"If you see a circle: 
respond with the letter  C   only if the triangle is in the middle. 

DO NOT press anything if the triangle is positioned on the left.
 

If you see a square:
Always respond with the letter  M   
",1,0,80,32,1,79,0.161,
,,,,,,,,,,,circle.jpg,-0.1,0,none,023,2019-06-09_22h12.34.995,Primed GoNogo,3.0.4,60,,,,,,,,,,,,,,,,1,1,0,2,1,1,1,conditionsMaster2.csv,1,0,3,2,1,2,conditionsFile2.csv,1,0,1,0,1,0,conditions2.csv,"If you see a circle: 
respond with the letter  C   only if the triangle is in the middle. 

DO NOT press anything if the triangle is positioned on the left.
 

If you see a square:
Always respond with the letter  M   
",1,0,80,23,1,79,,
,,,,,,,,,,,circle.jpg,0,0,c,023,2019-06-09_22h12.34.995,Primed GoNogo,3.0.4,60,,,,,,,,,,,,,,,c,1,1,0,2,1,1,1,conditionsMaster2.csv,1,0,3,2,1,2,conditionsFile2.csv,1,0,1,0,1,0,conditions2.csv,"If you see a circle: 
respond with the letter  C   only if the triangle is in the middle. 

DO NOT press anything if the triangle is positioned on the left.
 

If you see a square:
Always respond with the letter  M   
",1,0,80,38,1,79,0.23,
,,,,,,,,,,,circle.jpg,0,0,c,023,2019-06-09_22h12.34.995,Primed GoNogo,3.0.4,60,,,,,,,,,,,,,,,c,1,1,0,2,1,1,1,conditionsMaster2.csv,1,0,3,2,1,2,conditionsFile2.csv,1,0,1,0,1,0,conditions2.csv,"If you see a circle: 
respond with the letter  C   only if the triangle is in the middle. 

DO NOT press anything if the triangle is positioned on the left.
 

If you see a square:
Always respond with the letter  M   
",1,0,80,53,1,79,0.298,
,,,,,,,,,,,square.jpg,0,0,m,023,2019-06-09_22h12.34.995,Primed GoNogo,3.0.4,60,,,,,,,,,,,,,,,m,1,1,0,2,1,1,1,conditionsMaster2.csv,1,0,3,2,1,2,conditionsFile2.csv,1,0,1,0,1,0,conditions2.csv,"If you see a circle: 
respond with the letter  C   only if the triangle is in the middle. 

DO NOT press anything if the triangle is positioned on the left.
 

If you see a square:
Always respond with the letter  M   
",1,0,80,72,1,79,0.012,
,,,,,,,,,,,circle.jpg,-0.1,0,none,023,2019-06-09_22h12.34.995,Primed GoNogo,3.0.4,60,,,,,,,,,,,,,,,,1,1,0,2,1,1,1,conditionsMaster2.csv,1,0,3,2,1,2,conditionsFile2.csv,1,0,1,0,1,0,conditions2.csv,"If you see a circle: 
respond with the letter  C   only if the triangle is in the middle. 

DO NOT press anything if the triangle is positioned on the left.
 

If you see a square:
Always respond with the letter  M   
",1,0,80,79,1,79,,
,,,,,,,,,,,circle.jpg,0,0,c,023,2019-06-09_22h12.34.995,Primed GoNogo,3.0.4,60,,,,,,,,,,,,,,,c,1,1,0,2,1,1,1,conditionsMaster2.csv,1,0,3,2,1,2,conditionsFile2.csv,1,0,1,0,1,0,conditions2.csv,"If you see a circle: 
respond with the letter  C   only if the triangle is in the middle. 

DO NOT press anything if the triangle is positioned on the left.
 

If you see a square:
Always respond with the letter  M   
",1,0,80,78,1,79,0.279,
,,,,,,,,,,,square.jpg,0,0,m,023,2019-06-09_22h12.34.995,Primed GoNogo,3.0.4,60,,,,,,,,,,,,,,,m,1,1,0,2,1,1,1,conditionsMaster2.csv,1,0,3,2,1,2,conditionsFile2.csv,1,0,1,0,1,0,conditions2.csv,"If you see a circle: 
respond with the letter  C   only if the triangle is in the middle. 

DO NOT press anything if the triangle is positioned on the left.
 

If you see a square:
Always respond with the letter  M   
",1,0,80,25,1,79,0.313,
,,,,,,,,,,,circle.jpg,-0.1,0,none,023,2019-06-09_22h12.34.995,Primed GoNogo,3.0.4,60,,,,,,,,,,,,,,,,1,1,0,2,1,1,1,conditionsMaster2.csv,1,0,3,2,1,2,conditionsFile2.csv,1,0,1,0,1,0,conditions2.csv,"If you see a circle: 
respond with the letter  C   only if the triangle is in the middle. 

DO NOT press anything if the triangle is positioned on the left.
 

If you see a square:
Always respond with the letter  M   
",1,0,80,15,1,79,,
,,,,,,,,,,,circle.jpg,0,0,c,023,2019-06-09_22h12.34.995,Primed GoNogo,3.0.4,60,,,,,,,,,,,,,,,c,1,1,0,2,1,1,1,conditionsMaster2.csv,1,0,3,2,1,2,conditionsFile2.csv,1,0,1,0,1,0,conditions2.csv,"If you see a circle: 
respond with the letter  C   only if the triangle is in the middle. 

DO NOT press anything if the triangle is positioned on the left.
 

If you see a square:
Always respond with the letter  M   
",1,0,80,14,1,79,0.246,
,,,,,,,,,,,circle.jpg,0,0,c,023,2019-06-09_22h12.34.995,Primed GoNogo,3.0.4,60,,,,,,,,,,,,,,,c,1,1,0,2,1,1,1,conditionsMaster2.csv,1,0,3,2,1,2,conditionsFile2.csv,1,0,1,0,1,0,conditions2.csv,"If you see a circle: 
respond with the letter  C   only if the triangle is in the middle. 

DO NOT press anything if the triangle is positioned on the left.
 

If you see a square:
Always respond with the letter  M   
",1,0,80,76,1,79,0.297,
,,,,,,,,,,,square.jpg,0,0,m,023,2019-06-09_22h12.34.995,Primed GoNogo,3.0.4,60,,,,,,,,,,,,,,m,,0,1,0,2,1,1,1,conditionsMaster2.csv,1,0,3,2,1,2,conditionsFile2.csv,1,0,1,0,1,0,conditions2.csv,"If you see a circle: 
respond with the letter  C   only if the triangle is in the middle. 

DO NOT press anything if the triangle is positioned on the left.
 

If you see a square:
Always respond with the letter  M   
",1,0,80,48,1,79,,0.928
,,,,,,,,,,,square.jpg,0,0,m,023,2019-06-09_22h12.34.995,Primed GoNogo,3.0.4,60,,,,,,,,,,,,,,,m,1,1,0,2,1,1,1,conditionsMaster2.csv,1,0,3,2,1,2,conditionsFile2.csv,1,0,1,0,1,0,conditions2.csv,"If you see a circle: 
respond with the letter  C   only if the triangle is in the middle. 

DO NOT press anything if the triangle is positioned on the left.
 

If you see a square:
Always respond with the letter  M   
",1,0,80,34,1,79,0.278,
,,,,,,,,,,,square.jpg,0,0,m,023,2019-06-09_22h12.34.995,Primed GoNogo,3.0.4,60,,,,,,,,,,,,,,,m,1,1,0,2,1,1,1,conditionsMaster2.csv,1,0,3,2,1,2,conditionsFile2.csv,1,0,1,0,1,0,conditions2.csv,"If you see a circle: 
respond with the letter  C   only if the triangle is in the middle. 

DO NOT press anything if the triangle is positioned on the left.
 

If you see a square:
Always respond with the letter  M   
",1,0,80,24,1,79,0.331,
,,,,,,,,,,,circle.jpg,0,0,c,023,2019-06-09_22h12.34.995,Primed GoNogo,3.0.4,60,,,,,,,,,,,,,,,c,1,1,0,2,1,1,1,conditionsMaster2.csv,1,0,3,2,1,2,conditionsFile2.csv,1,0,1,0,1,0,conditions2.csv,"If you see a circle: 
respond with the letter  C   only if the triangle is in the middle. 

DO NOT press anything if the triangle is positioned on the left.
 

If you see a square:
Always respond with the letter  M   
",1,0,80,4,1,79,0.278,
,,,,,,,,,,,circle.jpg,0,0,c,023,2019-06-09_22h12.34.995,Primed GoNogo,3.0.4,60,,,,,,,,,,,,,,,c,1,1,0,2,1,1,1,conditionsMaster2.csv,1,0,3,2,1,2,conditionsFile2.csv,1,0,1,0,1,0,conditions2.csv,"If you see a circle: 
respond with the letter  C   only if the triangle is in the middle. 

DO NOT press anything if the triangle is positioned on the left.
 

If you see a square:
Always respond with the letter  M   
",1,0,80,68,1,79,0.296,
,,,,,,,,,,,square.jpg,0,0,m,023,2019-06-09_22h12.34.995,Primed GoNogo,3.0.4,60,,,,,,,,,,,,,,,m,1,1,0,2,1,1,1,conditionsMaster2.csv,1,0,3,2,1,2,conditionsFile2.csv,1,0,1,0,1,0,conditions2.csv,"If you see a circle: 
respond with the letter  C   only if the triangle is in the middle. 

DO NOT press anything if the triangle is positioned on the left.
 

If you see a square:
Always respond with the letter  M   
",1,0,80,10,1,79,0.263,
,,,,,,,,,,,square.jpg,0,0,m,023,2019-06-09_22h12.34.995,Primed GoNogo,3.0.4,60,,,,,,,,,,,,,,,m,1,1,0,2,1,1,1,conditionsMaster2.csv,1,0,3,2,1,2,conditionsFile2.csv,1,0,1,0,1,0,conditions2.csv,"If you see a circle: 
respond with the letter  C   only if the triangle is in the middle. 

DO NOT press anything if the triangle is positioned on the left.
 

If you see a square:
Always respond with the letter  M   
",1,0,80,66,1,79,0.298,
,,,,,,,,,,,square.jpg,0,0,m,023,2019-06-09_22h12.34.995,Primed GoNogo,3.0.4,60,,,,,,,,,,,,,,,m,1,1,0,2,1,1,1,conditionsMaster2.csv,1,0,3,2,1,2,conditionsFile2.csv,1,0,1,0,1,0,conditions2.csv,"If you see a circle: 
respond with the letter  C   only if the triangle is in the middle. 

DO NOT press anything if the triangle is positioned on the left.
 

If you see a square:
Always respond with the letter  M   
",1,0,80,56,1,79,0.246,
,,,,,,,,,,,circle.jpg,-0.1,0,none,023,2019-06-09_22h12.34.995,Primed GoNogo,3.0.4,60,,,,,,,,,,,,,,,,1,1,0,2,1,1,1,conditionsMaster2.csv,1,0,3,2,1,2,conditionsFile2.csv,1,0,1,0,1,0,conditions2.csv,"If you see a circle: 
respond with the letter  C   only if the triangle is in the middle. 

DO NOT press anything if the triangle is positioned on the left.
 

If you see a square:
Always respond with the letter  M   
",1,0,80,47,1,79,,
,,,,,,,,,,,circle.jpg,-0.1,0,none,023,2019-06-09_22h12.34.995,Primed GoNogo,3.0.4,60,,,,,,,,,,,,,,,,1,1,0,2,1,1,1,conditionsMaster2.csv,1,0,3,2,1,2,conditionsFile2.csv,1,0,1,0,1,0,conditions2.csv,"If you see a circle: 
respond with the letter  C   only if the triangle is in the middle. 

DO NOT press anything if the triangle is positioned on the left.
 

If you see a square:
Always respond with the letter  M   
",1,0,80,7,1,79,,
,,,,,,,,,,,square.jpg,0.1,0,m,023,2019-06-09_22h12.34.995,Primed GoNogo,3.0.4,60,,,,,,,,,,,,,,,m,1,1,0,2,1,1,1,conditionsMaster2.csv,1,0,3,2,1,2,conditionsFile2.csv,1,0,1,0,1,0,conditions2.csv,"If you see a circle: 
respond with the letter  C   only if the triangle is in the middle. 

DO NOT press anything if the triangle is positioned on the left.
 

If you see a square:
Always respond with the letter  M   
",1,0,80,19,1,79,0.562,
,,,,,,,,,,,circle.jpg,-0.1,0,none,023,2019-06-09_22h12.34.995,Primed GoNogo,3.0.4,60,,,,,,,,,,,,,,,,1,1,0,2,1,1,1,conditionsMaster2.csv,1,0,3,2,1,2,conditionsFile2.csv,1,0,1,0,1,0,conditions2.csv,"If you see a circle: 
respond with the letter  C   only if the triangle is in the middle. 

DO NOT press anything if the triangle is positioned on the left.
 

If you see a square:
Always respond with the letter  M   
",1,0,80,71,1,79,,
,,,,,,,,,,,circle.jpg,0,0,c,023,2019-06-09_22h12.34.995,Primed GoNogo,3.0.4,60,,,,,,,,,,,,,,,c,1,1,0,2,1,1,1,conditionsMaster2.csv,1,0,3,2,1,2,conditionsFile2.csv,1,0,1,0,1,0,conditions2.csv,"If you see a circle: 
respond with the letter  C   only if the triangle is in the middle. 

DO NOT press anything if the triangle is positioned on the left.
 

If you see a square:
Always respond with the letter  M   
",1,0,80,69,1,79,0.479,
,,,,,,,,,,,circle.jpg,-0.1,0,none,023,2019-06-09_22h12.34.995,Primed GoNogo,3.0.4,60,,,,,,,,,,,,,,,,1,1,0,2,1,1,1,conditionsMaster2.csv,1,0,3,2,1,2,conditionsFile2.csv,1,0,1,0,1,0,conditions2.csv,"If you see a circle: 
respond with the letter  C   only if the triangle is in the middle. 

DO NOT press anything if the triangle is positioned on the left.
 

If you see a square:
Always respond with the letter  M   
",1,0,80,55,1,79,,
,,,,,,,,,,,square.jpg,0,0,m,023,2019-06-09_22h12.34.995,Primed GoNogo,3.0.4,60,,,,,,,,,,,,,,,m,1,1,0,2,1,1,1,conditionsMaster2.csv,1,0,3,2,1,2,conditionsFile2.csv,1,0,1,0,1,0,conditions2.csv,"If you see a circle: 
respond with the letter  C   only if the triangle is in the middle. 

DO NOT press anything if the triangle is positioned on the left.
 

If you see a square:
Always respond with the letter  M   
",1,0,80,42,1,79,0.412,
,,,,,,,,,,,square.jpg,0,0,m,023,2019-06-09_22h12.34.995,Primed GoNogo,3.0.4,60,,,,,,,,,,,,,,,m,1,1,0,2,1,1,1,conditionsMaster2.csv,1,0,3,2,1,2,conditionsFile2.csv,1,0,1,0,1,0,conditions2.csv,"If you see a circle: 
respond with the letter  C   only if the triangle is in the middle. 

DO NOT press anything if the triangle is positioned on the left.
 

If you see a square:
Always respond with the letter  M   
",1,0,80,57,1,79,0.362,
